timestamp,time_seconds,accel_x_g,accel_y_g,accel_z_g,gyro_x_dps,gyro_y_dps,gyro_z_dps,temp_c
2026-02-13 16:09:27.817,0.000,0.033056,-0.015604,1.775323,1.110,-2.357,0.871,32.39
2026-02-13 16:09:27.920,0.102,0.032812,-0.018777,1.773614,1.355,-2.196,0.825,32.20
2026-02-13 16:09:28.018,0.200,0.034276,-0.018289,1.776788,1.240,-2.403,0.993,32.25
2026-02-13 16:09:28.119,0.301,0.031347,-0.018533,1.780450,1.286,-2.059,0.856,32.29
2026-02-13 16:09:28.218,0.400,0.034032,-0.016336,1.781671,1.278,-2.448,0.596,32.20
2026-02-13 16:09:28.318,0.500,0.034032,-0.020486,1.776299,1.095,-2.250,0.833,32.20
2026-02-13 16:09:28.419,0.601,0.031103,-0.017557,1.776788,1.118,-2.380,0.871,32.25
2026-02-13 16:09:28.518,0.700,0.029394,-0.019266,1.772149,1.149,-2.212,0.901,32.20
2026-02-13 16:09:28.620,0.802,0.031591,-0.016580,1.776299,1.072,-2.105,0.871,32.20
2026-02-13 16:09:28.722,0.900,0.036229,-0.019510,1.774835,1.110,-2.326,0.787,32.10
2026-02-13 16:09:28.818,1.000,0.039892,-0.020242,1.774346,1.087,-2.242,0.733,32.20
2026-02-13 16:09:28.921,1.100,0.038183,-0.011941,1.780206,1.248,-2.021,1.001,32.10
2026-02-13 16:09:29.018,1.200,0.029638,-0.026102,1.773126,1.149,-2.418,0.955,32.29
2026-02-13 16:09:29.118,1.300,0.032812,-0.013406,1.784112,1.026,-2.319,1.008,32.20
2026-02-13 16:09:29.218,1.400,0.034276,-0.022439,1.772881,1.103,-2.128,0.703,32.25
2026-02-13 16:09:29.318,1.500,0.036229,-0.019266,1.780450,1.194,-1.983,0.795,32.29
2026-02-13 16:09:29.418,1.600,0.036474,-0.019510,1.774835,0.851,-1.990,0.741,32.10
2026-02-13 16:09:29.517,1.700,0.034032,-0.022684,1.773370,1.003,-2.311,0.779,32.25
2026-02-13 16:09:29.618,1.800,0.035497,-0.014871,1.771172,1.164,-2.235,0.688,32.05
2026-02-13 16:09:29.722,1.903,0.031347,-0.016336,1.777276,1.240,-2.090,0.856,31.85
2026-02-13 16:09:29.818,2.000,0.031103,-0.019754,1.771417,1.026,-2.357,1.039,32.20
2026-02-13 16:09:29.918,2.100,0.034521,-0.023904,1.772393,1.034,-2.174,0.871,32.29
2026-02-13 16:09:30.017,2.200,0.035009,-0.018533,1.780938,1.126,-2.395,0.810,32.25
2026-02-13 16:09:30.117,2.300,0.036718,-0.021463,1.776299,1.347,-2.258,0.833,32.25
2026-02-13 16:09:30.217,2.400,0.036474,-0.016336,1.779962,1.080,-2.273,0.588,32.25
2026-02-13 16:09:30.317,2.500,0.033300,-0.021463,1.777764,1.202,-2.303,0.665,32.20
2026-02-13 16:09:30.417,2.600,0.034765,-0.013895,1.773370,1.278,-2.326,0.573,32.39
2026-02-13 16:09:30.517,2.700,0.033300,-0.016092,1.780206,1.232,-2.135,0.840,32.10
2026-02-13 16:09:30.618,2.800,0.032323,-0.017557,1.778985,1.187,-2.487,0.985,32.20
2026-02-13 16:09:30.717,2.900,0.035497,-0.019754,1.778985,1.408,-2.090,1.046,32.59
2026-02-13 16:09:30.818,3.000,0.032323,-0.017068,1.772149,1.217,-2.441,0.642,32.25
2026-02-13 16:09:30.918,3.100,0.033788,-0.021463,1.776788,1.431,-2.296,0.741,32.25
2026-02-13 16:09:31.018,3.200,0.034521,-0.018289,1.778253,1.103,-2.242,1.069,32.20
2026-02-13 16:09:31.118,3.300,0.035741,-0.016336,1.775567,1.355,-2.341,0.733,32.25
2026-02-13 16:09:31.218,3.400,0.036229,-0.020242,1.778497,1.171,-2.380,0.848,32.20
2026-02-13 16:09:31.317,3.500,0.036229,-0.018289,1.776299,1.301,-1.952,0.436,32.05
2026-02-13 16:09:31.417,3.600,0.033788,-0.020975,1.781182,1.110,-2.311,1.306,32.10
2026-02-13 16:09:31.517,3.700,0.036229,-0.019266,1.781915,1.042,-2.319,0.695,32.10
2026-02-13 16:09:31.617,3.800,0.037694,-0.014871,1.779717,0.858,-2.219,0.512,32.20
2026-02-13 16:09:31.717,3.900,0.033788,-0.019754,1.781182,1.339,-2.509,0.871,32.00
2026-02-13 16:09:31.817,4.000,0.030126,-0.022684,1.778253,1.202,-2.380,0.733,32.10
2026-02-13 16:09:31.917,4.100,0.033788,-0.024148,1.770684,1.309,-2.166,0.703,32.10
2026-02-13 16:09:32.018,4.200,0.030614,-0.021707,1.770440,1.309,-2.204,0.810,32.10
2026-02-13 16:09:32.118,4.300,0.034032,-0.017801,1.777276,1.271,-2.013,0.718,32.20
2026-02-13 16:09:32.218,4.400,0.031347,-0.015848,1.781182,1.194,-2.258,0.772,32.05
2026-02-13 16:09:32.317,4.500,0.035497,-0.017068,1.779229,1.156,-2.303,0.741,32.20
2026-02-13 16:09:32.418,4.600,0.034276,-0.019022,1.781426,1.149,-2.265,1.016,32.20
2026-02-13 16:09:32.517,4.700,0.036229,-0.018533,1.778008,1.118,-2.112,0.741,32.20
2026-02-13 16:09:32.618,4.800,0.037206,-0.014871,1.774346,1.141,-2.219,0.649,32.25
2026-02-13 16:09:32.718,4.900,0.031835,-0.018533,1.774102,1.278,-2.074,1.031,32.29
2026-02-13 16:09:32.817,5.000,0.028905,-0.018045,1.777032,1.171,-2.517,1.176,32.39
2026-02-13 16:09:32.917,5.100,0.037694,-0.015359,1.776544,1.103,-2.311,0.825,32.20
2026-02-13 16:09:33.017,5.200,0.034765,-0.022928,1.777764,1.057,-2.250,0.764,32.29
2026-02-13 16:09:33.117,5.300,0.030858,-0.019266,1.777520,1.164,-2.410,0.871,32.10
2026-02-13 16:09:33.217,5.400,0.031591,-0.021463,1.771172,1.080,-2.090,0.672,32.29
2026-02-13 16:09:33.318,5.500,0.032812,-0.015848,1.778008,1.026,-2.067,0.779,32.20
2026-02-13 16:09:33.417,5.600,0.032323,-0.018289,1.777520,1.065,-2.235,0.962,32.29
2026-02-13 16:09:33.517,5.700,0.031835,-0.018045,1.768731,0.996,-2.029,0.665,32.29
2026-02-13 16:09:33.617,5.800,0.029882,-0.021707,1.781915,1.149,-2.112,0.886,32.20
2026-02-13 16:09:33.717,5.900,0.031347,-0.016824,1.782647,1.034,-2.326,0.726,32.29
2026-02-13 16:09:33.817,6.000,0.035253,-0.016824,1.785333,1.179,-2.334,0.680,32.25
2026-02-13 16:09:33.918,6.100,0.034765,-0.016580,1.773370,1.133,-2.166,0.856,32.20
2026-02-13 16:09:34.018,6.200,0.033788,-0.014627,1.781182,1.057,-2.334,0.863,32.54
2026-02-13 16:09:34.117,6.300,0.031835,-0.012186,1.776788,1.232,-2.227,0.795,32.20
2026-02-13 16:09:34.217,6.400,0.035497,-0.014383,1.776544,1.026,-1.960,0.703,32.10
2026-02-13 16:09:34.317,6.500,0.031347,-0.018045,1.772149,1.248,-2.219,0.695,32.10
2026-02-13 16:09:34.417,6.600,0.029882,-0.015848,1.770440,1.439,-1.998,0.901,32.20
2026-02-13 16:09:34.517,6.700,0.028173,-0.017313,1.775811,0.912,-2.380,0.932,32.20
2026-02-13 16:09:34.618,6.800,0.031347,-0.018289,1.775567,0.935,-2.456,0.878,32.25
2026-02-13 16:09:34.717,6.900,0.036474,-0.019022,1.774102,1.210,-2.349,0.695,32.10
2026-02-13 16:09:34.818,7.000,0.032079,-0.021463,1.780938,1.332,-2.425,0.642,32.05
2026-02-13 16:09:34.918,7.100,0.034521,-0.016092,1.777276,1.187,-2.067,0.917,32.00
2026-02-13 16:09:35.017,7.200,0.031347,-0.016580,1.779473,1.141,-2.273,0.726,32.20
2026-02-13 16:09:35.117,7.300,0.032079,-0.019266,1.772881,1.103,-2.036,0.749,32.10
2026-02-13 16:09:35.217,7.400,0.033056,-0.015115,1.779473,1.149,-2.219,0.993,32.05
2026-02-13 16:09:35.317,7.500,0.033056,-0.017557,1.778741,1.294,-2.441,0.856,32.20
2026-02-13 16:09:35.417,7.600,0.031103,-0.014871,1.778741,1.179,-2.135,0.909,31.90
2026-02-13 16:09:35.517,7.700,0.031347,-0.016580,1.772637,1.248,-2.357,0.779,32.25
2026-02-13 16:09:35.617,7.800,0.033544,-0.016336,1.779717,0.988,-2.250,0.596,32.25
2026-02-13 16:09:35.717,7.900,0.033544,-0.021219,1.776299,1.423,-2.227,0.634,32.20
2026-02-13 16:09:35.817,8.000,0.034765,-0.018533,1.772637,1.156,-2.311,0.978,32.29
2026-02-13 16:09:35.918,8.100,0.032323,-0.018533,1.776544,1.294,-2.250,0.795,32.20
2026-02-13 16:09:36.017,8.200,0.035009,-0.016092,1.774835,1.263,-2.105,0.871,32.29
2026-02-13 16:09:36.117,8.300,0.032567,-0.017313,1.776544,1.003,-2.372,0.726,32.29
2026-02-13 16:09:36.217,8.400,0.032079,-0.018045,1.777032,1.026,-2.219,0.810,31.76
2026-02-13 16:09:36.317,8.500,0.034765,-0.015115,1.774102,1.225,-2.525,0.619,32.44
2026-02-13 16:09:36.417,8.600,0.032079,-0.018533,1.780694,1.057,-2.364,1.024,32.20
2026-02-13 16:09:36.517,8.700,0.033544,-0.022684,1.776788,1.156,-2.143,0.840,32.20
2026-02-13 16:09:36.617,8.800,0.036718,-0.019022,1.776788,1.225,-2.227,0.520,32.20
2026-02-13 16:09:36.717,8.900,0.027440,-0.019510,1.779229,1.164,-2.357,0.634,32.10
2026-02-13 16:09:36.818,9.000,0.033788,-0.018045,1.775811,1.194,-2.448,0.596,32.25
2026-02-13 16:09:36.918,9.100,0.031347,-0.018289,1.775079,1.294,-2.403,0.802,32.10
2026-02-13 16:09:37.017,9.200,0.034765,-0.016824,1.780450,1.034,-2.311,0.787,32.25
2026-02-13 16:09:37.117,9.300,0.034765,-0.019022,1.773370,1.271,-2.082,0.825,32.10
2026-02-13 16:09:37.217,9.400,0.033544,-0.013895,1.775811,1.065,-2.143,0.688,32.20
2026-02-13 16:09:37.317,9.500,0.033056,-0.018777,1.780694,1.271,-2.219,0.459,32.29
2026-02-13 16:09:37.418,9.600,0.030126,-0.013406,1.779717,1.164,-2.143,0.756,32.25
2026-02-13 16:09:37.518,9.700,0.033300,-0.017068,1.772881,1.126,-2.349,0.359,32.25
2026-02-13 16:09:37.617,9.800,0.032812,-0.017801,1.775567,1.133,-2.196,0.787,32.29
2026-02-13 16:09:37.717,9.900,0.035497,-0.018289,1.779962,1.133,-2.403,0.795,32.10
2026-02-13 16:09:37.818,10.000,0.033300,-0.019022,1.776299,1.347,-2.280,0.787,32.10
2026-02-13 16:09:37.918,10.100,0.035009,-0.015359,1.778253,1.110,-2.151,0.848,32.10
2026-02-13 16:09:38.017,10.200,0.031835,-0.015604,1.776544,0.843,-2.265,0.672,32.39
2026-02-13 16:09:38.117,10.300,0.028905,-0.016336,1.774102,1.278,-2.258,0.703,32.20
2026-02-13 16:09:38.217,10.400,0.032812,-0.015359,1.778985,1.210,-2.326,0.871,32.20
2026-02-13 16:09:38.317,10.500,0.031103,-0.021463,1.777764,1.133,-1.922,0.779,32.20
2026-02-13 16:09:38.417,10.600,0.029149,-0.019266,1.772637,1.278,-2.135,0.726,32.20
2026-02-13 16:09:38.518,10.700,0.034765,-0.017801,1.776055,1.126,-2.181,1.001,32.29
2026-02-13 16:09:38.618,10.800,0.037206,-0.018777,1.778985,1.217,-2.196,0.733,32.25
2026-02-13 16:09:38.718,10.900,0.032567,-0.016824,1.775811,1.355,-2.189,0.703,32.29
2026-02-13 16:09:38.818,11.000,0.034765,-0.017557,1.774346,1.019,-2.380,0.550,32.25
2026-02-13 16:09:38.918,11.100,0.033056,-0.019510,1.777520,1.164,-2.456,0.962,32.10
2026-02-13 16:09:39.018,11.200,0.032812,-0.015359,1.775323,0.965,-2.425,0.764,32.05
2026-02-13 16:09:39.117,11.300,0.033544,-0.016092,1.780938,1.271,-2.273,0.649,32.20
2026-02-13 16:09:39.217,11.400,0.036718,-0.022439,1.776299,1.271,-2.380,0.871,32.00
2026-02-13 16:09:39.317,11.500,0.035253,-0.018533,1.772637,1.439,-2.326,0.978,32.10
2026-02-13 16:09:39.417,11.600,0.030370,-0.015848,1.775323,1.049,-2.112,0.764,32.10
2026-02-13 16:09:39.517,11.700,0.030858,-0.018777,1.779473,1.255,-2.418,0.726,32.59
2026-02-13 16:09:39.617,11.800,0.027440,-0.016824,1.773858,1.248,-2.112,0.802,32.20
2026-02-13 16:09:39.717,11.900,0.032812,-0.021219,1.778985,1.034,-2.242,0.756,32.29
2026-02-13 16:09:39.818,12.000,0.031591,-0.015359,1.767510,1.026,-2.204,0.878,32.20
2026-02-13 16:09:39.918,12.100,0.034032,-0.017801,1.778741,1.003,-2.174,0.787,32.29
2026-02-13 16:09:40.017,12.200,0.031591,-0.016336,1.781915,1.072,-2.380,0.527,32.00
2026-02-13 16:09:40.117,12.300,0.035253,-0.018533,1.775811,1.378,-2.036,0.795,32.29
2026-02-13 16:09:40.217,12.400,0.034521,-0.019754,1.778497,1.469,-2.219,1.016,32.20
2026-02-13 16:09:40.318,12.500,0.034032,-0.017313,1.779962,1.294,-2.090,0.657,32.20
2026-02-13 16:09:40.417,12.600,0.031103,-0.018777,1.777520,1.003,-2.196,0.886,32.20
2026-02-13 16:09:40.517,12.700,0.033544,-0.017068,1.778008,1.263,-2.250,0.810,32.25
2026-02-13 16:09:40.617,12.800,0.031591,-0.017068,1.778741,1.179,-2.273,0.405,32.10
2026-02-13 16:09:40.717,12.900,0.032812,-0.017801,1.776299,1.362,-2.189,0.627,32.54
2026-02-13 16:09:40.817,13.000,0.033300,-0.016580,1.777276,1.126,-2.112,0.443,32.10
2026-02-13 16:09:40.917,13.100,0.035741,-0.017801,1.780206,1.065,-2.502,0.718,32.29
2026-02-13 16:09:41.017,13.200,0.034765,-0.017801,1.774835,1.194,-2.151,0.924,32.20
2026-02-13 16:09:41.117,13.300,0.034521,-0.015604,1.783135,1.294,-2.196,0.680,32.10
2026-02-13 16:09:41.217,13.400,0.034521,-0.019266,1.776544,1.179,-2.235,0.863,32.39
2026-02-13 16:09:41.317,13.500,0.035985,-0.017557,1.778008,0.919,-2.029,0.955,32.20
2026-02-13 16:09:41.417,13.600,0.030370,-0.018045,1.779229,1.164,-2.464,0.665,32.44
2026-02-13 16:09:41.517,13.700,0.031103,-0.016336,1.776544,0.958,-2.204,0.787,32.39
2026-02-13 16:09:41.617,13.800,0.030370,-0.020486,1.784600,1.324,-2.494,0.581,32.39
2026-02-13 16:09:41.717,13.900,0.031347,-0.020730,1.774346,1.065,-2.357,0.833,32.20
2026-02-13 16:09:41.817,14.000,0.032812,-0.019510,1.783380,1.042,-2.487,0.856,32.25
2026-02-13 16:09:41.918,14.100,0.033788,-0.016092,1.778008,0.996,-2.280,0.550,32.59
2026-02-13 16:09:42.017,14.200,0.032812,-0.019022,1.774346,0.904,-2.174,0.611,32.44
2026-02-13 16:09:42.117,14.300,0.033788,-0.019022,1.769952,1.362,-2.525,0.810,32.29
2026-02-13 16:09:42.217,14.400,0.036474,-0.016092,1.778741,1.301,-2.296,0.848,32.10
2026-02-13 16:09:42.317,14.500,0.032079,-0.015604,1.775079,1.248,-1.998,0.955,32.10
2026-02-13 16:09:42.417,14.600,0.032323,-0.017313,1.772393,1.141,-2.456,0.764,32.10
2026-02-13 16:09:42.517,14.700,0.032812,-0.020730,1.775811,1.179,-2.097,0.817,32.05
2026-02-13 16:09:42.617,14.800,0.033056,-0.018777,1.780450,1.278,-2.395,0.878,32.39
2026-02-13 16:09:42.717,14.900,0.035497,-0.019754,1.771172,1.225,-2.425,0.596,32.29
2026-02-13 16:09:42.817,15.000,0.034765,-0.016336,1.776055,1.309,-2.326,0.947,32.25
2026-02-13 16:09:42.917,15.100,0.034765,-0.019510,1.770928,1.271,-2.196,0.795,32.29
2026-02-13 16:09:43.017,15.200,0.031103,-0.020486,1.771661,1.065,-2.166,0.871,32.29
2026-02-13 16:09:43.117,15.300,0.035009,-0.016580,1.777764,0.981,-2.135,0.520,32.39
2026-02-13 16:09:43.217,15.400,0.034521,-0.014871,1.776299,1.072,-1.952,0.665,32.20
2026-02-13 16:09:43.317,15.500,0.036229,-0.017068,1.781182,1.370,-2.311,1.199,32.10
2026-02-13 16:09:43.417,15.600,0.031835,-0.018777,1.777764,1.301,-2.280,0.703,32.29
2026-02-13 16:09:43.517,15.700,0.035009,-0.019022,1.777276,1.156,-2.235,0.878,32.10
2026-02-13 16:09:43.617,15.800,0.031835,-0.018045,1.780694,1.301,-2.280,0.871,32.00
2026-02-13 16:09:43.717,15.900,0.031591,-0.019022,1.784112,1.110,-2.044,0.504,32.20
2026-02-13 16:09:43.817,16.000,0.030126,-0.017068,1.784112,1.133,-2.151,0.840,32.10
2026-02-13 16:09:43.917,16.100,0.034032,-0.017557,1.774590,1.385,-2.341,0.504,32.39
2026-02-13 16:09:44.018,16.200,0.035253,-0.017557,1.780206,1.065,-2.242,0.825,32.44
2026-02-13 16:09:44.117,16.300,0.035497,-0.018777,1.770684,0.736,-2.189,0.863,32.29
2026-02-13 16:09:44.217,16.400,0.036718,-0.013895,1.774835,1.072,-2.006,1.039,32.20
2026-02-13 16:09:44.317,16.500,0.034276,-0.016336,1.778985,1.179,-2.265,0.871,32.54
2026-02-13 16:09:44.417,16.600,0.029149,-0.014871,1.778985,1.164,-2.258,0.833,32.29
2026-02-13 16:09:44.517,16.700,0.032567,-0.018777,1.778985,0.919,-2.265,0.474,32.29
2026-02-13 16:09:44.617,16.800,0.037694,-0.015359,1.765801,1.232,-2.219,1.054,32.20
2026-02-13 16:09:44.717,16.900,0.034521,-0.018777,1.778253,1.217,-2.135,0.749,32.39
2026-02-13 16:09:44.817,17.000,0.038427,-0.020975,1.778253,1.240,-2.349,0.993,32.20
2026-02-13 16:09:44.917,17.100,0.036718,-0.017068,1.776544,0.965,-2.082,0.649,32.20
2026-02-13 16:09:45.017,17.200,0.032079,-0.017557,1.779473,1.240,-2.021,0.810,32.29
2026-02-13 16:09:45.117,17.300,0.031347,-0.017068,1.780694,1.011,-2.494,0.627,32.25
2026-02-13 16:09:45.217,17.400,0.031103,-0.021951,1.777276,1.301,-2.166,1.161,32.29
2026-02-13 16:09:45.317,17.500,0.032567,-0.018045,1.776544,1.309,-2.174,0.573,32.05
2026-02-13 16:09:45.417,17.600,0.032079,-0.019754,1.780450,1.095,-2.174,0.634,32.44
2026-02-13 16:09:45.517,17.700,0.035985,-0.020242,1.775811,0.866,-2.403,0.795,32.25
2026-02-13 16:09:45.617,17.800,0.033056,-0.018777,1.774835,1.210,-2.487,0.680,32.00
2026-02-13 16:09:45.717,17.900,0.032323,-0.018533,1.778253,1.133,-2.410,0.894,32.10
2026-02-13 16:09:45.817,18.000,0.028905,-0.019998,1.773126,1.049,-2.395,0.711,32.20
2026-02-13 16:09:45.917,18.100,0.030370,-0.021707,1.778985,1.179,-2.303,1.054,32.20
2026-02-13 16:09:46.017,18.200,0.032323,-0.020242,1.775079,1.011,-2.051,0.741,32.64
2026-02-13 16:09:46.117,18.300,0.032323,-0.019510,1.781182,1.240,-2.128,0.932,32.05
2026-02-13 16:09:46.217,18.400,0.033788,-0.017801,1.776055,1.324,-2.441,0.749,32.20
2026-02-13 16:09:46.317,18.500,0.033788,-0.020975,1.774346,1.171,-2.036,0.695,32.44
2026-02-13 16:09:46.417,18.600,0.033056,-0.017313,1.779717,1.103,-2.303,0.833,32.20
2026-02-13 16:09:46.517,18.700,0.031835,-0.016336,1.776788,1.240,-2.158,0.863,32.29
2026-02-13 16:09:46.617,18.800,0.035497,-0.016092,1.781671,0.973,-2.387,0.665,32.39
2026-02-13 16:09:46.717,18.900,0.035985,-0.019998,1.773126,1.378,-2.471,0.634,32.05
2026-02-13 16:09:46.817,19.000,0.032567,-0.016580,1.776544,1.042,-2.204,0.649,32.25
2026-02-13 16:09:46.917,19.100,0.034765,-0.013895,1.778497,1.187,-2.006,0.848,32.25
2026-02-13 16:09:47.017,19.200,0.034276,-0.016336,1.770440,1.103,-2.265,0.611,32.29
2026-02-13 16:09:47.118,19.300,0.033056,-0.018045,1.776299,1.202,-2.158,0.627,32.29
2026-02-13 16:09:47.218,19.400,0.033300,-0.016336,1.778497,1.034,-2.196,0.802,32.20
2026-02-13 16:09:47.317,19.500,0.035009,-0.018289,1.776299,1.355,-2.181,1.146,32.05
2026-02-13 16:09:47.418,19.600,0.029149,-0.018289,1.778253,1.003,-2.196,0.695,32.54
2026-02-13 16:09:47.517,19.700,0.035497,-0.018289,1.777764,1.118,-1.952,0.840,32.25
2026-02-13 16:09:47.617,19.800,0.031835,-0.016092,1.775811,1.011,-2.349,0.924,32.20
2026-02-13 16:09:47.717,19.900,0.031835,-0.020730,1.777032,1.110,-1.960,0.901,32.20
2026-02-13 16:09:47.818,20.000,0.035741,-0.018289,1.777276,1.080,-2.174,1.046,32.00
2026-02-13 16:09:47.917,20.100,0.028661,-0.021463,1.769464,1.049,-2.181,1.146,32.10
2026-02-13 16:09:48.017,20.200,0.034032,-0.021463,1.778741,1.095,-2.265,0.504,32.20
2026-02-13 16:09:48.117,20.300,0.034276,-0.019998,1.771661,1.194,-2.319,0.917,32.20
2026-02-13 16:09:48.219,20.400,0.035985,-0.016336,1.777276,0.996,-2.189,0.772,32.20
2026-02-13 16:09:48.318,20.500,0.038183,-0.019754,1.774590,1.179,-2.174,0.909,32.29
2026-02-13 16:09:48.418,20.600,0.037206,-0.019510,1.779717,1.240,-2.479,0.711,32.20
2026-02-13 16:09:48.517,20.700,0.037206,-0.018289,1.777764,1.309,-2.471,0.512,32.39
2026-02-13 16:09:48.618,20.800,0.033300,-0.017801,1.772393,1.263,-2.189,0.611,32.20
2026-02-13 16:09:48.717,20.900,0.030126,-0.018533,1.775811,0.996,-2.250,0.749,32.29
2026-02-13 16:09:48.818,21.000,0.035497,-0.023904,1.776544,1.255,-2.280,0.657,32.25
2026-02-13 16:09:48.918,21.100,0.032567,-0.020975,1.778741,1.110,-2.181,0.802,32.20
2026-02-13 16:09:49.018,21.200,0.028173,-0.020486,1.778008,1.225,-2.135,0.947,32.39
2026-02-13 16:09:49.117,21.300,0.032812,-0.017557,1.776544,1.431,-2.288,0.718,32.39
2026-02-13 16:09:49.217,21.400,0.028661,-0.020486,1.779473,0.973,-2.151,0.749,32.29
2026-02-13 16:09:49.317,21.500,0.031591,-0.015604,1.778741,1.294,-2.158,0.894,32.39
2026-02-13 16:09:49.417,21.600,0.031835,-0.016580,1.776788,1.126,-2.334,0.741,32.54
2026-02-13 16:09:49.517,21.700,0.031591,-0.017557,1.776299,1.194,-2.258,0.688,32.39
2026-02-13 16:09:49.617,21.800,0.036474,-0.017801,1.773858,0.973,-1.945,0.962,32.05
2026-02-13 16:09:49.717,21.900,0.034032,-0.016092,1.775811,1.393,-2.479,0.795,32.10
2026-02-13 16:09:49.818,22.000,0.034032,-0.020486,1.777520,1.095,-2.341,0.726,32.05
2026-02-13 16:09:49.918,22.100,0.030370,-0.019266,1.775323,1.286,-2.151,0.649,32.54
2026-02-13 16:09:50.018,22.200,0.036718,-0.017313,1.778985,1.362,-2.242,0.581,32.20
2026-02-13 16:09:50.117,22.300,0.031103,-0.022928,1.772637,0.919,-2.090,0.688,32.20
2026-02-13 16:09:50.217,22.400,0.031103,-0.016092,1.775567,1.034,-2.219,0.642,32.20
2026-02-13 16:09:50.317,22.500,0.035741,-0.018533,1.779229,0.828,-2.212,0.795,32.29
2026-02-13 16:09:50.417,22.600,0.038183,-0.020486,1.772393,1.087,-2.273,0.726,32.25
2026-02-13 16:09:50.517,22.700,0.032323,-0.019022,1.780938,1.011,-2.311,0.779,32.44
2026-02-13 16:09:50.617,22.800,0.035741,-0.022195,1.771905,1.126,-2.105,0.802,32.10
2026-02-13 16:09:50.717,22.900,0.033788,-0.020975,1.783135,1.339,-1.761,0.726,32.20
2026-02-13 16:09:50.817,23.000,0.033056,-0.015848,1.778253,1.202,-2.380,0.695,32.05
2026-02-13 16:09:50.917,23.100,0.033544,-0.017801,1.775323,1.126,-2.326,0.627,32.39
2026-02-13 16:09:51.017,23.200,0.036962,-0.015115,1.775079,0.889,-2.112,0.909,32.10
2026-02-13 16:09:51.117,23.300,0.036474,-0.017068,1.777276,1.087,-2.219,0.695,32.39
2026-02-13 16:09:51.217,23.400,0.034521,-0.019754,1.782891,1.087,-2.235,0.901,32.25
2026-02-13 16:09:51.317,23.500,0.036962,-0.018777,1.777764,1.240,-2.196,0.779,32.00
2026-02-13 16:09:51.417,23.600,0.033788,-0.021707,1.777032,1.255,-2.639,0.749,32.29
2026-02-13 16:09:51.517,23.700,0.033544,-0.019510,1.782159,1.171,-2.403,0.871,32.20
2026-02-13 16:09:51.617,23.800,0.034765,-0.020730,1.779473,1.248,-2.151,0.787,32.39
2026-02-13 16:09:51.717,23.900,0.035497,-0.016580,1.775323,1.217,-2.403,0.688,32.29
2026-02-13 16:09:51.817,24.000,0.032079,-0.014627,1.772881,1.171,-2.441,0.787,32.39
2026-02-13 16:09:51.918,24.100,0.029149,-0.019022,1.780694,0.973,-2.357,0.917,32.20
2026-02-13 16:09:52.017,24.200,0.032567,-0.017313,1.775323,1.164,-2.364,0.596,32.20
2026-02-13 16:09:52.117,24.300,0.032079,-0.018777,1.778741,1.171,-2.517,0.940,32.29
2026-02-13 16:09:52.217,24.400,0.032079,-0.014383,1.773370,0.935,-2.067,0.833,32.10
2026-02-13 16:09:52.318,24.500,0.035253,-0.018533,1.778985,1.164,-2.425,0.573,32.20
2026-02-13 16:09:52.417,24.600,0.035253,-0.015848,1.778253,1.118,-2.280,1.031,32.59
2026-02-13 16:09:52.517,24.700,0.028905,-0.019754,1.775811,1.416,-2.425,1.054,32.44
2026-02-13 16:09:52.617,24.800,0.030858,-0.016580,1.774590,1.171,-2.349,0.474,32.29
2026-02-13 16:09:52.717,24.900,0.034765,-0.017557,1.774835,1.110,-2.204,0.634,32.20
2026-02-13 16:09:52.817,25.000,0.032079,-0.018289,1.776299,1.210,-2.051,0.634,32.05
2026-02-13 16:09:52.918,25.100,0.035497,-0.016824,1.774346,1.255,-2.112,0.695,32.00
2026-02-13 16:09:53.017,25.200,0.032567,-0.016580,1.773614,1.103,-1.853,0.779,32.20
2026-02-13 16:09:53.117,25.300,0.033544,-0.016092,1.780450,1.194,-2.235,0.970,32.39
2026-02-13 16:09:53.217,25.400,0.035009,-0.018533,1.774835,1.141,-2.219,0.680,32.20
2026-02-13 16:09:53.317,25.500,0.031591,-0.014139,1.778985,1.316,-2.166,0.627,32.59
2026-02-13 16:09:53.417,25.600,0.033300,-0.013895,1.779473,1.309,-2.357,0.756,32.44
2026-02-13 16:09:53.517,25.700,0.031591,-0.017801,1.780694,1.232,-2.364,0.779,32.29
2026-02-13 16:09:53.617,25.800,0.029394,-0.017557,1.776299,1.278,-2.273,0.527,32.20
2026-02-13 16:09:53.717,25.900,0.035497,-0.016580,1.773858,1.217,-2.044,0.840,32.20
2026-02-13 16:09:53.817,26.000,0.032567,-0.017313,1.780450,1.370,-2.196,0.802,32.54
2026-02-13 16:09:53.917,26.100,0.034032,-0.015359,1.779717,0.927,-2.074,0.993,32.39
2026-02-13 16:09:54.017,26.200,0.033056,-0.018289,1.772637,1.446,-2.067,0.749,32.25
2026-02-13 16:09:54.117,26.300,0.031347,-0.020486,1.776055,1.011,-2.181,0.627,32.25
2026-02-13 16:09:54.217,26.400,0.035497,-0.018533,1.771661,1.286,-2.288,0.970,32.54
2026-02-13 16:09:54.317,26.500,0.030370,-0.016580,1.774835,1.065,-2.280,1.039,32.39
2026-02-13 16:09:54.417,26.600,0.034032,-0.017313,1.778741,1.477,-2.090,0.711,32.25
2026-02-13 16:09:54.517,26.700,0.030370,-0.017068,1.772149,1.149,-2.349,0.619,32.29
2026-02-13 16:09:54.617,26.800,0.036229,-0.016336,1.776299,1.065,-2.212,0.566,32.29
2026-02-13 16:09:54.717,26.900,0.030614,-0.017313,1.776544,1.217,-2.456,1.039,32.59
2026-02-13 16:09:54.817,27.000,0.036718,-0.017068,1.770684,1.255,-2.479,0.627,32.44
2026-02-13 16:09:54.917,27.100,0.035985,-0.012674,1.774590,1.141,-2.120,0.634,32.25
2026-02-13 16:09:55.017,27.200,0.034032,-0.015848,1.777276,0.965,-2.509,0.688,32.54
2026-02-13 16:09:55.117,27.300,0.034276,-0.019998,1.779473,1.431,-2.128,0.649,32.10
2026-02-13 16:09:55.217,27.400,0.032567,-0.020486,1.778253,1.057,-2.235,0.451,32.54
2026-02-13 16:09:55.317,27.500,0.032323,-0.016580,1.773858,1.316,-2.181,0.894,32.20
2026-02-13 16:09:55.417,27.600,0.031835,-0.019754,1.774835,1.072,-2.364,0.993,32.25
2026-02-13 16:09:55.517,27.700,0.032567,-0.020486,1.774835,1.095,-2.189,0.993,32.44
2026-02-13 16:09:55.617,27.800,0.033300,-0.014871,1.778741,1.057,-2.235,0.741,32.54
2026-02-13 16:09:55.717,27.900,0.031835,-0.018045,1.768487,1.019,-2.151,0.840,32.59
2026-02-13 16:09:55.817,28.000,0.033056,-0.013895,1.779473,1.149,-2.212,0.940,32.10
2026-02-13 16:09:55.917,28.100,0.031347,-0.015848,1.773370,1.011,-2.059,0.634,32.10
2026-02-13 16:09:56.017,28.200,0.032323,-0.019754,1.778985,1.378,-2.387,0.749,32.29
2026-02-13 16:09:56.117,28.300,0.037450,-0.019022,1.778741,1.126,-2.158,0.588,32.29
2026-02-13 16:09:56.217,28.400,0.032567,-0.014383,1.783135,1.370,-2.479,0.711,32.25
2026-02-13 16:09:56.317,28.500,0.034032,-0.017557,1.778985,1.149,-2.448,0.764,32.29
2026-02-13 16:09:56.417,28.600,0.034521,-0.016824,1.778497,1.523,-2.326,0.527,32.20
2026-02-13 16:09:56.517,28.700,0.031835,-0.015848,1.778008,1.072,-2.212,0.627,32.20
2026-02-13 16:09:56.617,28.800,0.035253,-0.017313,1.778008,1.225,-2.334,0.817,32.29
2026-02-13 16:09:56.718,28.900,0.035985,-0.014383,1.771905,1.087,-2.372,0.878,32.29
2026-02-13 16:09:56.818,29.000,0.033300,-0.017068,1.775079,1.332,-2.380,0.817,32.54
2026-02-13 16:09:56.917,29.100,0.034765,-0.016092,1.775567,1.156,-2.204,0.665,32.54
2026-02-13 16:09:57.018,29.200,0.034521,-0.018777,1.768243,1.194,-1.906,1.130,32.20
2026-02-13 16:09:57.118,29.300,0.034521,-0.019998,1.777520,1.049,-2.341,0.443,32.25
2026-02-13 16:09:57.217,29.400,0.036718,-0.016092,1.772393,0.981,-2.204,0.749,32.20
2026-02-13 16:09:57.317,29.500,0.033544,-0.017557,1.774346,1.248,-2.074,1.046,32.25
2026-02-13 16:09:57.417,29.600,0.033056,-0.019754,1.773126,1.507,-2.456,0.810,32.20
2026-02-13 16:09:57.517,29.700,0.033544,-0.018289,1.777764,1.416,-2.112,0.894,32.29
2026-02-13 16:09:57.617,29.800,0.033056,-0.019754,1.781182,1.149,-2.135,0.802,32.20
2026-02-13 16:09:57.718,29.900,0.034521,-0.017313,1.778253,1.507,-2.082,1.031,32.20
2026-02-13 16:09:57.818,30.000,0.034032,-0.018533,1.779229,1.133,-2.296,0.535,32.20
2026-02-13 16:09:57.918,30.100,0.030858,-0.019754,1.775811,1.210,-2.357,0.856,32.29
2026-02-13 16:09:58.017,30.200,0.034521,-0.013895,1.775567,1.179,-2.319,0.733,32.39
2026-02-13 16:09:58.117,30.300,0.031103,-0.019266,1.773858,1.347,-2.227,0.924,32.44
2026-02-13 16:09:58.217,30.400,0.035253,-0.016580,1.774590,1.110,-2.097,0.840,32.44
2026-02-13 16:09:58.317,30.500,0.036229,-0.016824,1.779473,1.171,-1.998,0.733,32.44
2026-02-13 16:09:58.417,30.600,0.032812,-0.015115,1.778008,0.958,-2.181,0.611,32.29
2026-02-13 16:09:58.517,30.700,0.031103,-0.015848,1.777764,1.087,-2.319,0.428,32.39
2026-02-13 16:09:58.617,30.800,0.034765,-0.014139,1.774346,1.065,-2.204,0.405,32.20
2026-02-13 16:09:58.717,30.900,0.033300,-0.017557,1.777764,1.278,-2.502,0.871,32.25
2026-02-13 16:09:58.818,31.000,0.029394,-0.019754,1.771905,0.958,-2.151,0.817,32.44
2026-02-13 16:09:58.917,31.100,0.029149,-0.015848,1.773126,0.996,-2.189,0.733,32.10
2026-02-13 16:09:59.018,31.200,0.032812,-0.021707,1.771905,1.126,-2.135,0.642,32.20
2026-02-13 16:09:59.118,31.300,0.031835,-0.017801,1.772149,1.202,-2.265,0.795,32.59
2026-02-13 16:09:59.217,31.400,0.035497,-0.016092,1.777276,1.141,-2.280,0.619,32.20
2026-02-13 16:09:59.317,31.500,0.031103,-0.019510,1.769952,1.133,-2.273,0.573,32.64
2026-02-13 16:09:59.417,31.600,0.033544,-0.017068,1.779717,1.431,-2.174,0.649,32.44
2026-02-13 16:09:59.518,31.700,0.031835,-0.019510,1.780694,1.133,-1.998,0.833,32.29
2026-02-13 16:09:59.617,31.800,0.033788,-0.020242,1.779717,1.034,-2.166,0.779,32.29
2026-02-13 16:09:59.717,31.900,0.034032,-0.019266,1.776788,1.095,-2.448,0.764,32.20
2026-02-13 16:09:59.818,32.000,0.035253,-0.017313,1.776788,1.255,-2.357,0.634,32.25
2026-02-13 16:09:59.918,32.100,0.033788,-0.020730,1.768243,1.355,-2.548,0.581,32.25
2026-02-13 16:10:00.017,32.200,0.037206,-0.019022,1.774835,1.210,-2.502,0.817,32.10
2026-02-13 16:10:00.117,32.300,0.030858,-0.018533,1.775323,1.271,-2.189,1.062,32.25
2026-02-13 16:10:00.217,32.400,0.031835,-0.021463,1.773858,1.423,-2.242,0.947,32.29
2026-02-13 16:10:00.317,32.500,0.033544,-0.018289,1.780450,1.362,-2.570,0.779,32.05
2026-02-13 16:10:00.417,32.600,0.035497,-0.016092,1.778741,1.316,-2.425,0.802,32.10
2026-02-13 16:10:00.517,32.700,0.031347,-0.018289,1.769708,1.171,-2.471,0.665,32.20
2026-02-13 16:10:00.617,32.800,0.037694,-0.018533,1.775323,1.026,-2.204,0.940,32.29
2026-02-13 16:10:00.717,32.900,0.034032,-0.017557,1.772637,1.042,-2.288,0.848,32.25
2026-02-13 16:10:00.817,33.000,0.034276,-0.016336,1.779473,1.156,-2.174,0.833,32.10
2026-02-13 16:10:00.917,33.100,0.034521,-0.016580,1.774835,1.156,-2.158,0.825,32.20
2026-02-13 16:10:01.017,33.200,0.031835,-0.017557,1.778985,1.118,-2.425,0.726,32.20
2026-02-13 16:10:01.117,33.300,0.033544,-0.017801,1.774102,1.171,-2.212,0.848,32.20
2026-02-13 16:10:01.217,33.400,0.035985,-0.013895,1.779717,1.423,-2.372,0.779,32.20
2026-02-13 16:10:01.317,33.500,0.034521,-0.016092,1.777764,1.202,-2.021,0.688,32.29
2026-02-13 16:10:01.417,33.600,0.033788,-0.020975,1.770928,1.217,-2.235,0.924,32.10
2026-02-13 16:10:01.517,33.700,0.029638,-0.017068,1.780450,0.996,-2.303,0.703,32.44
2026-02-13 16:10:01.617,33.800,0.031591,-0.015604,1.774102,1.057,-1.990,0.718,32.10
2026-02-13 16:10:01.717,33.900,0.031835,-0.016092,1.773858,1.393,-2.212,0.588,32.20
2026-02-13 16:10:01.817,34.000,0.035741,-0.017068,1.780206,1.301,-2.464,1.054,32.54
2026-02-13 16:10:01.917,34.100,0.032323,-0.016580,1.775811,1.026,-2.189,0.718,32.39
2026-02-13 16:10:02.017,34.200,0.035253,-0.015604,1.776544,1.271,-2.609,0.848,32.59
2026-02-13 16:10:02.117,34.300,0.029638,-0.019754,1.771172,1.164,-2.479,1.024,32.29
2026-02-13 16:10:02.217,34.400,0.032567,-0.016580,1.779962,0.973,-2.097,0.695,32.44
2026-02-13 16:10:02.317,34.500,0.033788,-0.018777,1.775079,1.294,-2.341,0.695,32.44
2026-02-13 16:10:02.417,34.600,0.037450,-0.019022,1.776788,1.423,-2.341,0.390,32.39
2026-02-13 16:10:02.517,34.700,0.030858,-0.016824,1.773858,1.087,-2.471,1.115,32.29
2026-02-13 16:10:02.617,34.800,0.030858,-0.017068,1.778253,1.217,-2.265,0.756,32.20
2026-02-13 16:10:02.717,34.900,0.032079,-0.019022,1.780938,1.133,-2.059,0.917,32.44
2026-02-13 16:10:02.817,35.000,0.033788,-0.018045,1.772881,1.164,-2.441,0.749,32.10
2026-02-13 16:10:02.917,35.100,0.032323,-0.016824,1.773126,1.118,-2.509,0.878,32.20
2026-02-13 16:10:03.017,35.200,0.030858,-0.018289,1.775567,1.019,-2.128,0.581,32.64
2026-02-13 16:10:03.117,35.300,0.030858,-0.017313,1.773370,1.187,-2.349,0.863,32.39
2026-02-13 16:10:03.217,35.400,0.031591,-0.017313,1.777764,1.126,-2.433,0.833,32.00
2026-02-13 16:10:03.317,35.500,0.035009,-0.018289,1.779229,0.942,-2.296,0.657,32.29
2026-02-13 16:10:03.417,35.600,0.032079,-0.018777,1.778253,1.210,-2.273,0.604,32.20
2026-02-13 16:10:03.517,35.700,0.031835,-0.017313,1.780694,1.057,-2.425,0.833,32.29
2026-02-13 16:10:03.617,35.800,0.034765,-0.018045,1.778497,1.439,-2.105,0.993,32.44
2026-02-13 16:10:03.717,35.900,0.032812,-0.018777,1.770440,1.217,-2.387,0.619,32.44
2026-02-13 16:10:03.817,36.000,0.031835,-0.019998,1.783135,1.248,-2.250,0.909,32.25
2026-02-13 16:10:03.917,36.100,0.033544,-0.018045,1.775567,0.981,-2.364,0.619,32.39
2026-02-13 16:10:04.017,36.200,0.034521,-0.019510,1.776544,0.973,-2.296,0.588,32.29
2026-02-13 16:10:04.117,36.300,0.030370,-0.019754,1.768487,1.034,-2.372,0.611,32.20
2026-02-13 16:10:04.217,36.400,0.031835,-0.019022,1.780206,1.294,-2.181,0.894,32.39
2026-02-13 16:10:04.317,36.500,0.030370,-0.019754,1.782647,1.210,-2.555,0.878,32.20
2026-02-13 16:10:04.417,36.600,0.032323,-0.016824,1.783624,1.232,-2.174,0.825,32.39
2026-02-13 16:10:04.517,36.700,0.034032,-0.017068,1.778497,1.072,-2.029,0.665,32.20
2026-02-13 16:10:04.617,36.800,0.033788,-0.018533,1.776299,0.942,-2.227,0.810,32.05
2026-02-13 16:10:04.717,36.900,0.034276,-0.016824,1.775079,1.194,-2.487,0.810,32.39
2026-02-13 16:10:04.817,37.000,0.034032,-0.017801,1.777520,1.019,-2.128,0.741,32.20
2026-02-13 16:10:04.917,37.100,0.030614,-0.019998,1.779717,1.378,-2.051,0.772,32.29
2026-02-13 16:10:05.017,37.200,0.032812,-0.017313,1.777032,1.339,-2.280,0.795,32.25
2026-02-13 16:10:05.117,37.300,0.035497,-0.019510,1.779717,1.042,-2.235,0.642,32.39
2026-02-13 16:10:05.217,37.400,0.034276,-0.019022,1.776055,1.316,-2.494,0.978,32.25
2026-02-13 16:10:05.317,37.500,0.034521,-0.019266,1.774102,1.164,-2.319,0.825,32.25
2026-02-13 16:10:05.417,37.600,0.036229,-0.018533,1.780206,1.095,-2.120,0.733,32.39
2026-02-13 16:10:05.517,37.700,0.031103,-0.017313,1.783380,1.248,-2.280,0.856,32.29
2026-02-13 16:10:05.617,37.800,0.037938,-0.016336,1.782647,1.393,-2.509,1.016,32.39
2026-02-13 16:10:05.717,37.900,0.037206,-0.020730,1.777276,1.217,-2.273,0.642,32.20
2026-02-13 16:10:05.817,38.000,0.036718,-0.017068,1.777764,1.339,-2.196,0.756,32.54
2026-02-13 16:10:05.917,38.100,0.031591,-0.016336,1.775323,1.065,-2.235,0.581,32.59
2026-02-13 16:10:06.017,38.200,0.030370,-0.012918,1.781426,1.332,-2.212,0.443,32.29
2026-02-13 16:10:06.117,38.300,0.036962,-0.019510,1.778741,1.255,-2.334,0.680,32.25
2026-02-13 16:10:06.217,38.400,0.034032,-0.020975,1.772881,0.881,-2.196,0.932,32.29
2026-02-13 16:10:06.318,38.500,0.032812,-0.014627,1.776544,1.210,-2.189,1.024,32.39
2026-02-13 16:10:06.418,38.600,0.035985,-0.016580,1.774346,1.118,-1.967,0.817,32.29
2026-02-13 16:10:06.517,38.700,0.033788,-0.015359,1.784844,1.133,-2.380,0.802,32.29
2026-02-13 16:10:06.618,38.800,0.034032,-0.019266,1.778008,0.942,-2.364,0.779,32.39
2026-02-13 16:10:06.717,38.900,0.035741,-0.017801,1.776544,1.301,-2.128,0.825,32.25
2026-02-13 16:10:06.818,39.000,0.033056,-0.020486,1.778741,1.164,-2.143,0.558,32.05
2026-02-13 16:10:06.917,39.100,0.032079,-0.020730,1.779229,1.278,-2.105,0.909,32.39
2026-02-13 16:10:07.017,39.200,0.032567,-0.016824,1.773126,1.316,-2.128,0.649,32.10
2026-02-13 16:10:07.118,39.300,0.037206,-0.017801,1.785089,1.255,-2.364,0.733,32.44
2026-02-13 16:10:07.217,39.400,0.035497,-0.017068,1.784112,1.110,-1.990,1.001,32.25
2026-02-13 16:10:07.317,39.500,0.035253,-0.020486,1.785333,1.232,-1.967,0.955,32.20
2026-02-13 16:10:07.418,39.600,0.033544,-0.015359,1.784112,1.301,-2.174,0.772,32.29
2026-02-13 16:10:07.518,39.700,0.030126,-0.019754,1.773858,1.217,-2.128,0.894,32.25
2026-02-13 16:10:07.618,39.800,0.033056,-0.018045,1.775079,1.133,-2.326,0.787,32.20
2026-02-13 16:10:07.717,39.900,0.031103,-0.022928,1.779717,1.362,-2.135,0.581,32.54
2026-02-13 16:10:07.818,40.000,0.032812,-0.020975,1.777764,1.164,-2.189,0.688,32.29
2026-02-13 16:10:07.917,40.100,0.036229,-0.018777,1.777032,1.271,-2.143,0.817,32.29
2026-02-13 16:10:08.017,40.200,0.030614,-0.016336,1.776055,1.294,-2.212,0.848,32.10
2026-02-13 16:10:08.117,40.300,0.031103,-0.018289,1.778985,1.240,-2.174,0.703,32.25
2026-02-13 16:10:08.217,40.400,0.033544,-0.016580,1.778253,1.232,-2.235,0.978,32.59
2026-02-13 16:10:08.317,40.500,0.030614,-0.018777,1.775811,1.072,-2.288,0.733,32.39
2026-02-13 16:10:08.417,40.600,0.034032,-0.019510,1.777520,1.255,-2.227,0.619,32.25
2026-02-13 16:10:08.517,40.700,0.032079,-0.017313,1.777520,1.087,-2.128,0.535,32.10
2026-02-13 16:10:08.617,40.800,0.033300,-0.020242,1.778253,1.217,-2.143,1.016,32.10
2026-02-13 16:10:08.717,40.900,0.036229,-0.019022,1.769708,1.171,-2.395,0.527,32.64
2026-02-13 16:10:08.818,41.000,0.032567,-0.022928,1.777520,1.087,-2.487,0.596,32.44
2026-02-13 16:10:08.917,41.100,0.030614,-0.017068,1.771661,1.156,-2.410,0.688,32.20
2026-02-13 16:10:09.017,41.200,0.031347,-0.019998,1.774102,1.202,-2.319,0.611,32.00
2026-02-13 16:10:09.118,41.300,0.032567,-0.018533,1.779229,1.439,-2.235,0.733,32.39
2026-02-13 16:10:09.218,41.400,0.031103,-0.017557,1.780694,1.065,-2.364,0.573,32.25
2026-02-13 16:10:09.317,41.500,0.032323,-0.017068,1.779473,0.988,-2.280,0.886,31.90
2026-02-13 16:10:09.417,41.600,0.031103,-0.016336,1.775567,1.240,-2.227,0.665,32.44
2026-02-13 16:10:09.517,41.700,0.032079,-0.018289,1.777276,1.194,-2.204,0.642,32.29
2026-02-13 16:10:09.617,41.800,0.030858,-0.015359,1.778741,1.126,-2.326,0.688,32.39
2026-02-13 16:10:09.717,41.900,0.031591,-0.020975,1.773858,1.149,-2.280,0.741,32.44
2026-02-13 16:10:09.818,42.000,0.036718,-0.021219,1.779473,1.019,-2.387,0.543,32.29
2026-02-13 16:10:09.918,42.100,0.035741,-0.018533,1.781915,1.194,-2.387,0.932,32.39
2026-02-13 16:10:10.017,42.200,0.036962,-0.015604,1.782647,1.080,-2.105,0.649,32.29
2026-02-13 16:10:10.117,42.300,0.033788,-0.019022,1.776055,1.110,-2.395,0.932,32.39
2026-02-13 16:10:10.217,42.400,0.029638,-0.019266,1.776055,1.202,-2.303,0.649,32.44
2026-02-13 16:10:10.317,42.500,0.031591,-0.015848,1.773614,1.240,-2.357,0.604,32.20
2026-02-13 16:10:10.417,42.600,0.033300,-0.015359,1.778008,1.141,-2.517,0.504,32.54
2026-02-13 16:10:10.517,42.700,0.033300,-0.016580,1.779962,1.187,-2.433,0.718,32.54
2026-02-13 16:10:10.617,42.800,0.038671,-0.017068,1.778008,1.278,-2.502,0.886,32.39
2026-02-13 16:10:10.717,42.900,0.033300,-0.018289,1.776055,0.919,-2.250,0.917,32.59
2026-02-13 16:10:10.817,43.000,0.031103,-0.018289,1.773614,1.072,-2.425,0.787,32.59
2026-02-13 16:10:10.917,43.100,0.033300,-0.016580,1.776299,1.423,-2.097,0.779,32.20
2026-02-13 16:10:11.017,43.200,0.034521,-0.018533,1.778253,1.255,-2.326,0.535,32.25
2026-02-13 16:10:11.117,43.300,0.032079,-0.017557,1.771661,1.042,-2.219,0.611,32.44
2026-02-13 16:10:11.217,43.400,0.032812,-0.014627,1.777276,1.362,-2.296,0.947,32.44
2026-02-13 16:10:11.317,43.500,0.035985,-0.018777,1.776055,1.164,-2.044,0.367,32.39
2026-02-13 16:10:11.417,43.600,0.029882,-0.018533,1.776299,1.072,-2.044,0.817,32.20
2026-02-13 16:10:11.517,43.700,0.034765,-0.014383,1.776299,0.881,-2.632,0.634,32.64
2026-02-13 16:10:11.617,43.800,0.033056,-0.017801,1.784112,1.232,-2.212,0.711,32.54
2026-02-13 16:10:11.717,43.900,0.035741,-0.016580,1.777276,1.324,-2.311,0.848,32.39
2026-02-13 16:10:11.817,44.000,0.034032,-0.017068,1.777764,1.339,-2.357,0.817,32.44
2026-02-13 16:10:11.917,44.100,0.028417,-0.016824,1.775567,1.149,-2.448,0.688,32.25
2026-02-13 16:10:12.017,44.200,0.034276,-0.014627,1.776299,1.301,-2.242,0.596,32.20
2026-02-13 16:10:12.118,44.300,0.036474,-0.020486,1.777520,1.133,-2.166,0.718,32.39
2026-02-13 16:10:12.217,44.400,0.034032,-0.018045,1.774102,0.965,-2.372,0.764,32.25
2026-02-13 16:10:12.317,44.500,0.035009,-0.021951,1.778985,1.187,-2.250,0.672,32.25
2026-02-13 16:10:12.417,44.600,0.034521,-0.015848,1.779473,1.080,-2.181,0.787,32.05
2026-02-13 16:10:12.517,44.700,0.031103,-0.015848,1.777520,1.194,-2.334,0.772,32.29
2026-02-13 16:10:12.617,44.800,0.030858,-0.018289,1.776055,1.454,-2.273,0.703,32.44
2026-02-13 16:10:12.718,44.900,0.033056,-0.017801,1.776788,0.996,-2.296,0.604,32.25
2026-02-13 16:10:12.817,45.000,0.030858,-0.016824,1.778253,1.019,-2.395,1.016,32.20
2026-02-13 16:10:12.917,45.100,0.036718,-0.016092,1.782159,1.065,-2.288,0.489,32.39
2026-02-13 16:10:13.017,45.200,0.031835,-0.018045,1.776299,1.118,-2.135,0.795,32.25
2026-02-13 16:10:13.117,45.300,0.030614,-0.018289,1.787042,1.362,-2.219,0.726,32.05
2026-02-13 16:10:13.217,45.400,0.037450,-0.020730,1.777032,1.187,-1.998,0.527,32.64
2026-02-13 16:10:13.317,45.500,0.035985,-0.017313,1.775079,1.210,-2.067,0.779,32.20
2026-02-13 16:10:13.417,45.600,0.030858,-0.017068,1.775811,1.385,-2.372,0.741,32.25
2026-02-13 16:10:13.517,45.700,0.033300,-0.014871,1.771905,1.103,-2.380,0.726,32.25
2026-02-13 16:10:13.617,45.800,0.038427,-0.016580,1.780694,1.034,-2.250,0.772,32.59
2026-02-13 16:10:13.717,45.900,0.034521,-0.016580,1.774346,1.553,-2.372,0.649,32.25
2026-02-13 16:10:13.817,46.000,0.034521,-0.018289,1.777032,1.110,-2.181,0.817,32.54
2026-02-13 16:10:13.917,46.100,0.033300,-0.019510,1.783135,1.118,-2.357,0.764,32.29
2026-02-13 16:10:14.018,46.200,0.032323,-0.017557,1.775323,1.095,-2.425,0.741,32.29
2026-02-13 16:10:14.117,46.300,0.033300,-0.016336,1.775323,1.194,-2.303,0.795,32.25
2026-02-13 16:10:14.217,46.400,0.032323,-0.019998,1.773858,1.217,-2.319,0.871,32.39
2026-02-13 16:10:14.317,46.500,0.033056,-0.018045,1.776299,1.171,-2.250,0.863,32.54
2026-02-13 16:10:14.417,46.600,0.034032,-0.016336,1.769708,0.965,-2.357,0.512,32.39
2026-02-13 16:10:14.517,46.700,0.033300,-0.017801,1.776544,1.034,-2.296,1.024,32.25
2026-02-13 16:10:14.617,46.800,0.035497,-0.018045,1.775079,1.095,-2.029,0.856,32.39
2026-02-13 16:10:14.718,46.900,0.034765,-0.016580,1.774102,1.523,-2.280,0.894,32.20
2026-02-13 16:10:14.817,47.000,0.031591,-0.017068,1.780938,1.141,-2.059,0.840,32.29
2026-02-13 16:10:14.917,47.100,0.034521,-0.020730,1.780206,1.187,-2.280,0.833,32.29
2026-02-13 16:10:15.017,47.200,0.037206,-0.013895,1.776055,1.087,-2.349,0.764,32.10
2026-02-13 16:10:15.117,47.300,0.032323,-0.019266,1.778741,1.149,-2.403,0.795,32.44
2026-02-13 16:10:15.217,47.400,0.035497,-0.017313,1.775567,1.011,-2.326,0.718,32.39
2026-02-13 16:10:15.317,47.500,0.033544,-0.019022,1.775323,1.149,-2.082,0.474,32.29
2026-02-13 16:10:15.417,47.600,0.036718,-0.014627,1.773858,1.179,-2.242,0.657,32.64
2026-02-13 16:10:15.517,47.700,0.032567,-0.016092,1.778985,1.454,-2.227,1.146,32.29
2026-02-13 16:10:15.617,47.800,0.033788,-0.020730,1.771661,0.950,-2.174,1.008,32.59
2026-02-13 16:10:15.717,47.900,0.034765,-0.015115,1.776299,1.141,-2.181,0.779,32.05
2026-02-13 16:10:15.817,48.000,0.035009,-0.019510,1.775811,1.210,-2.341,0.726,32.59
2026-02-13 16:10:15.918,48.100,0.030614,-0.011453,1.778008,1.095,-2.288,0.840,32.20
2026-02-13 16:10:16.018,48.200,0.031835,-0.019266,1.774590,1.309,-2.364,0.817,32.29
2026-02-13 16:10:16.117,48.300,0.032079,-0.020486,1.775567,1.164,-2.097,0.588,32.54
2026-02-13 16:10:16.218,48.400,0.033300,-0.017068,1.777520,1.118,-2.311,0.772,32.10
2026-02-13 16:10:16.318,48.500,0.036229,-0.016092,1.776299,1.210,-2.227,1.107,32.44
2026-02-13 16:10:16.417,48.600,0.034765,-0.019266,1.775323,1.225,-2.013,0.764,32.20
2026-02-13 16:10:16.517,48.700,0.034521,-0.019754,1.773370,1.187,-2.235,0.840,32.44
2026-02-13 16:10:16.617,48.800,0.033056,-0.022195,1.771905,1.149,-1.792,0.756,31.90
2026-02-13 16:10:16.717,48.900,0.032567,-0.020975,1.776544,1.118,-2.273,0.543,32.44
2026-02-13 16:10:16.817,49.000,0.033300,-0.018045,1.779962,1.080,-2.570,0.749,32.64
2026-02-13 16:10:16.918,49.100,0.036229,-0.019022,1.777032,1.026,-2.021,0.741,32.54
2026-02-13 16:10:17.018,49.200,0.034765,-0.019754,1.778253,1.194,-2.112,0.817,32.29
2026-02-13 16:10:17.118,49.300,0.035009,-0.020730,1.778985,1.072,-2.334,0.733,32.20
2026-02-13 16:10:17.217,49.400,0.033056,-0.019510,1.770196,1.294,-2.242,0.970,32.39
2026-02-13 16:10:17.318,49.500,0.035253,-0.018289,1.777764,1.019,-2.334,0.711,32.10
2026-02-13 16:10:17.417,49.600,0.031591,-0.014627,1.779717,1.240,-2.189,0.749,32.39
2026-02-13 16:10:17.517,49.700,0.035497,-0.020975,1.771172,1.065,-2.258,1.191,32.25
2026-02-13 16:10:17.617,49.800,0.034032,-0.022684,1.772393,1.286,-2.280,0.604,32.64
2026-02-13 16:10:17.717,49.900,0.033788,-0.016580,1.781182,1.156,-2.303,0.932,32.10
2026-02-13 16:10:17.818,50.000,0.037450,-0.018289,1.776544,1.141,-2.151,0.840,32.20
2026-02-13 16:10:17.918,50.100,0.031591,-0.017557,1.775567,1.187,-2.395,0.917,32.44
2026-02-13 16:10:18.017,50.200,0.031835,-0.019510,1.773370,1.103,-2.242,0.878,31.90
2026-02-13 16:10:18.117,50.300,0.035985,-0.017313,1.776055,1.324,-2.090,0.772,32.44
2026-02-13 16:10:18.217,50.400,0.032812,-0.016580,1.781915,1.118,-2.250,0.886,32.39
2026-02-13 16:10:18.317,50.500,0.031103,-0.019022,1.776299,1.179,-2.380,0.871,32.29
2026-02-13 16:10:18.417,50.600,0.035009,-0.019022,1.774590,1.210,-2.128,0.909,32.20
2026-02-13 16:10:18.517,50.700,0.033300,-0.013650,1.779229,1.370,-2.410,0.856,32.39
2026-02-13 16:10:18.617,50.800,0.035741,-0.018289,1.778253,1.034,-2.166,0.764,32.54
2026-02-13 16:10:18.718,50.900,0.036229,-0.019510,1.780206,1.110,-2.196,1.123,32.39
2026-02-13 16:10:18.818,51.000,0.034521,-0.015848,1.778253,0.935,-2.204,0.825,32.29
2026-02-13 16:10:18.918,51.100,0.033056,-0.020486,1.782403,1.126,-2.227,0.878,32.64
2026-02-13 16:10:19.017,51.200,0.034521,-0.019266,1.770440,1.133,-2.105,0.787,32.59
2026-02-13 16:10:19.118,51.300,0.034521,-0.020486,1.776788,1.065,-1.922,0.802,32.10
2026-02-13 16:10:19.217,51.400,0.034032,-0.020975,1.771661,1.080,-2.242,0.993,32.54
2026-02-13 16:10:19.317,51.500,0.039892,-0.015359,1.780450,1.110,-2.128,0.642,32.59
2026-02-13 16:10:19.417,51.600,0.032812,-0.013406,1.774346,1.339,-2.258,0.863,32.39
2026-02-13 16:10:19.517,51.700,0.031347,-0.017801,1.775079,1.278,-2.135,0.672,32.44
2026-02-13 16:10:19.617,51.800,0.032079,-0.020242,1.777764,1.278,-2.326,0.856,32.10
2026-02-13 16:10:19.717,51.900,0.033056,-0.020975,1.773614,0.881,-2.296,0.848,32.20
2026-02-13 16:10:19.818,52.000,0.040136,-0.016092,1.778497,1.347,-2.074,0.810,32.54
2026-02-13 16:10:19.917,52.100,0.035009,-0.016824,1.778253,1.042,-2.135,0.695,32.39
2026-02-13 16:10:20.017,52.200,0.030858,-0.017801,1.778253,1.110,-2.372,1.100,32.25
2026-02-13 16:10:20.117,52.300,0.032567,-0.019510,1.777764,1.049,-2.280,0.978,32.44
2026-02-13 16:10:20.217,52.400,0.033056,-0.016092,1.772393,1.240,-2.517,0.886,32.29
2026-02-13 16:10:20.317,52.500,0.033056,-0.015115,1.780206,0.988,-2.189,0.627,32.20
2026-02-13 16:10:20.417,52.600,0.034276,-0.018777,1.778741,1.255,-2.433,1.062,32.39
2026-02-13 16:10:20.517,52.700,0.031835,-0.014871,1.782403,1.057,-2.418,0.672,32.20
2026-02-13 16:10:20.617,52.800,0.032079,-0.018045,1.773614,1.164,-2.685,0.901,32.25
2026-02-13 16:10:20.717,52.900,0.032812,-0.015848,1.775811,1.461,-2.265,0.688,32.10
2026-02-13 16:10:20.817,53.000,0.033544,-0.018289,1.778008,0.942,-2.258,0.604,32.29
2026-02-13 16:10:20.917,53.100,0.034521,-0.021219,1.776055,1.393,-2.181,0.680,32.44
2026-02-13 16:10:21.017,53.200,0.034032,-0.018533,1.774835,1.049,-2.349,0.856,32.44
2026-02-13 16:10:21.117,53.300,0.032323,-0.017557,1.776788,1.103,-2.143,0.909,32.10
2026-02-13 16:10:21.217,53.400,0.034032,-0.016092,1.775323,0.919,-2.487,0.672,32.39
2026-02-13 16:10:21.317,53.500,0.033056,-0.016580,1.779962,0.950,-2.135,0.558,32.29
2026-02-13 16:10:21.417,53.600,0.033544,-0.021219,1.772637,1.332,-2.196,0.733,32.59
2026-02-13 16:10:21.517,53.700,0.037450,-0.017068,1.775811,1.347,-2.433,0.527,32.64
2026-02-13 16:10:21.617,53.800,0.033300,-0.018533,1.779962,1.042,-2.181,0.787,32.59
2026-02-13 16:10:21.717,53.900,0.034276,-0.018045,1.774102,1.194,-2.387,1.069,32.25
2026-02-13 16:10:21.817,54.000,0.037938,-0.019266,1.776788,1.179,-2.128,0.817,32.20
2026-02-13 16:10:21.917,54.100,0.032079,-0.020486,1.776788,0.950,-2.258,0.863,32.25
2026-02-13 16:10:22.017,54.200,0.030858,-0.014383,1.780938,1.316,-2.555,0.672,32.20
2026-02-13 16:10:22.117,54.300,0.035741,-0.015604,1.777764,1.126,-2.250,0.802,32.54
2026-02-13 16:10:22.217,54.400,0.034765,-0.019022,1.780206,1.187,-2.418,0.993,32.05
2026-02-13 16:10:22.317,54.500,0.035985,-0.017557,1.771905,1.271,-2.112,0.680,32.54
2026-02-13 16:10:22.417,54.600,0.036962,-0.014871,1.779717,1.217,-2.250,0.711,32.29
2026-02-13 16:10:22.517,54.700,0.029394,-0.018045,1.780938,1.019,-2.242,0.741,32.25
2026-02-13 16:10:22.617,54.800,0.031835,-0.017557,1.775567,1.286,-2.349,0.878,32.10
2026-02-13 16:10:22.717,54.900,0.032079,-0.015115,1.781426,1.156,-2.189,0.817,32.10
2026-02-13 16:10:22.817,55.000,0.032079,-0.015604,1.779717,1.248,-2.112,0.962,32.29
2026-02-13 16:10:22.917,55.100,0.034276,-0.015848,1.775079,1.286,-2.311,0.825,32.20
2026-02-13 16:10:23.017,55.200,0.032323,-0.019266,1.779229,0.790,-2.044,0.970,32.39
2026-02-13 16:10:23.117,55.300,0.033788,-0.019510,1.778253,1.286,-2.174,0.924,32.59
2026-02-13 16:10:23.217,55.400,0.036718,-0.017313,1.782647,0.996,-2.219,0.711,32.25
2026-02-13 16:10:23.317,55.500,0.034765,-0.020486,1.781426,1.332,-2.341,0.558,32.29
2026-02-13 16:10:23.417,55.600,0.032323,-0.021463,1.778741,1.187,-2.464,0.787,32.25
2026-02-13 16:10:23.517,55.700,0.033788,-0.018045,1.777520,1.011,-2.280,0.741,32.39
2026-02-13 16:10:23.617,55.800,0.036718,-0.015604,1.775811,1.118,-2.372,0.924,32.29
2026-02-13 16:10:23.717,55.900,0.032323,-0.016824,1.779229,1.523,-2.212,0.482,32.20
2026-02-13 16:10:23.817,56.000,0.031835,-0.016336,1.781426,1.278,-2.433,0.688,32.44
2026-02-13 16:10:23.917,56.100,0.032812,-0.016824,1.777276,1.011,-2.326,0.779,32.20
2026-02-13 16:10:24.017,56.200,0.034276,-0.019266,1.774346,1.087,-2.143,0.817,32.44
2026-02-13 16:10:24.117,56.300,0.034032,-0.015604,1.773614,0.988,-2.227,0.917,32.39
2026-02-13 16:10:24.217,56.400,0.036962,-0.016580,1.782403,0.950,-2.479,0.649,32.29
2026-02-13 16:10:24.317,56.500,0.032079,-0.018777,1.779717,1.019,-2.341,0.894,32.59
2026-02-13 16:10:24.417,56.600,0.031835,-0.019510,1.775567,1.087,-2.334,0.863,32.20
2026-02-13 16:10:24.517,56.700,0.031591,-0.015115,1.775567,1.179,-2.204,0.863,32.29
2026-02-13 16:10:24.617,56.800,0.030370,-0.019266,1.775567,1.324,-2.151,0.695,32.25
2026-02-13 16:10:24.717,56.900,0.036962,-0.015115,1.776544,1.149,-2.296,0.672,32.44
2026-02-13 16:10:24.817,57.000,0.033056,-0.014627,1.773614,1.087,-2.387,0.871,32.54
2026-02-13 16:10:24.917,57.100,0.035253,-0.015115,1.776055,1.194,-2.151,1.016,32.25
2026-02-13 16:10:25.017,57.200,0.032079,-0.015115,1.778497,1.118,-2.364,0.726,32.54
2026-02-13 16:10:25.117,57.300,0.035741,-0.020486,1.777520,1.095,-2.204,0.978,32.54
2026-02-13 16:10:25.217,57.400,0.032812,-0.017801,1.777276,1.225,-2.487,0.894,32.25
2026-02-13 16:10:25.317,57.500,0.031591,-0.018045,1.778985,0.996,-2.525,0.917,32.39
2026-02-13 16:10:25.417,57.600,0.029882,-0.017068,1.773614,1.149,-2.387,0.924,32.25
2026-02-13 16:10:25.518,57.700,0.035497,-0.016824,1.777032,1.133,-2.158,0.886,32.39
2026-02-13 16:10:25.617,57.800,0.031591,-0.016580,1.773370,1.103,-2.105,0.749,32.29
2026-02-13 16:10:25.718,57.900,0.030614,-0.016092,1.777764,1.087,-2.204,0.680,32.54
2026-02-13 16:10:25.817,58.000,0.037206,-0.021951,1.779229,1.141,-2.418,0.817,32.54
2026-02-13 16:10:25.917,58.100,0.033544,-0.015115,1.774835,0.927,-2.387,0.627,32.20
2026-02-13 16:10:26.018,58.200,0.031103,-0.015359,1.778008,1.118,-2.258,0.604,32.39
2026-02-13 16:10:26.117,58.300,0.035985,-0.021219,1.785821,1.187,-2.219,0.688,32.59
2026-02-13 16:10:26.217,58.400,0.034276,-0.016336,1.776544,1.171,-2.227,0.802,32.20
2026-02-13 16:10:26.317,58.500,0.032812,-0.017557,1.779229,1.278,-2.357,0.573,32.10
2026-02-13 16:10:26.417,58.600,0.031835,-0.019022,1.779962,0.919,-1.822,0.764,32.29
2026-02-13 16:10:26.517,58.700,0.029394,-0.019998,1.773858,1.110,-2.090,0.680,32.25
2026-02-13 16:10:26.617,58.800,0.031835,-0.017313,1.782403,0.988,-2.044,0.504,32.25
2026-02-13 16:10:26.718,58.900,0.033788,-0.016824,1.776299,1.164,-2.280,0.779,32.29
2026-02-13 16:10:26.818,59.000,0.032079,-0.016580,1.778985,1.217,-2.235,0.909,32.64
2026-02-13 16:10:26.918,59.100,0.029882,-0.018045,1.772393,1.294,-2.425,0.856,32.39
2026-02-13 16:10:27.018,59.200,0.032323,-0.017068,1.777276,1.118,-2.235,0.772,32.39
2026-02-13 16:10:27.117,59.300,0.032323,-0.016580,1.775079,1.011,-2.219,0.596,32.29
2026-02-13 16:10:27.217,59.400,0.036962,-0.015359,1.774590,1.179,-1.945,0.726,32.59
2026-02-13 16:10:27.317,59.500,0.032079,-0.018045,1.775567,1.225,-2.357,0.718,32.20
2026-02-13 16:10:27.417,59.600,0.032812,-0.018533,1.774102,1.171,-2.319,0.634,32.29
2026-02-13 16:10:27.518,59.700,0.033788,-0.017313,1.777520,1.217,-2.334,0.894,32.78
2026-02-13 16:10:27.618,59.800,0.035741,-0.017068,1.781182,1.278,-2.387,0.947,32.44
2026-02-13 16:10:27.718,59.900,0.034765,-0.018777,1.777520,1.110,-2.433,0.932,32.20
2026-02-13 16:10:27.818,60.000,0.032812,-0.019266,1.774590,0.897,-2.204,0.642,32.44
2026-02-13 16:10:27.918,60.100,0.038427,-0.020975,1.778253,1.301,-2.548,0.550,32.39
2026-02-13 16:10:28.018,60.201,0.034032,-0.016824,1.776788,1.141,-2.158,0.344,32.44
2026-02-13 16:10:28.118,60.300,0.034032,-0.019998,1.781426,1.103,-2.716,0.527,32.64
2026-02-13 16:10:28.217,60.400,0.032812,-0.018777,1.775079,1.133,-2.273,1.214,32.39
2026-02-13 16:10:28.318,60.500,0.034032,-0.020242,1.778985,1.179,-2.143,0.695,32.44
2026-02-13 16:10:28.417,60.600,0.034765,-0.024393,1.773614,1.019,-1.945,0.833,32.54
2026-02-13 16:10:28.518,60.700,0.034032,-0.017801,1.778497,1.332,-2.196,1.031,32.44
2026-02-13 16:10:28.617,60.800,0.033300,-0.021463,1.781426,1.263,-2.258,0.795,32.29
2026-02-13 16:10:28.717,60.900,0.033300,-0.019510,1.774590,1.026,-2.288,0.726,32.29
2026-02-13 16:10:28.818,61.000,0.032812,-0.019754,1.777764,1.087,-1.975,0.688,32.44
2026-02-13 16:10:28.918,61.100,0.033300,-0.016824,1.775323,1.324,-1.998,0.718,32.59
2026-02-13 16:10:29.018,61.200,0.033544,-0.018045,1.773126,1.263,-2.105,0.253,32.29
2026-02-13 16:10:29.117,61.300,0.036229,-0.019022,1.774590,1.309,-2.258,0.909,32.25
2026-02-13 16:10:29.217,61.400,0.035009,-0.018045,1.775323,1.316,-2.273,0.901,32.39
2026-02-13 16:10:29.317,61.500,0.034276,-0.015604,1.778497,1.255,-2.372,0.817,32.44
2026-02-13 16:10:29.417,61.600,0.030370,-0.013895,1.777764,1.034,-1.990,0.932,32.20
2026-02-13 16:10:29.517,61.700,0.036718,-0.016336,1.783624,0.851,-2.112,0.718,32.39
2026-02-13 16:10:29.617,61.800,0.035253,-0.017801,1.778253,1.232,-2.158,0.970,32.29
2026-02-13 16:10:29.717,61.900,0.033300,-0.014383,1.778253,1.332,-2.204,0.756,32.64
2026-02-13 16:10:29.818,62.000,0.033544,-0.017068,1.773126,1.141,-2.357,1.069,32.20
2026-02-13 16:10:29.918,62.100,0.034521,-0.016092,1.780694,1.225,-2.456,0.978,32.59
2026-02-13 16:10:30.017,62.200,0.036229,-0.020486,1.778008,1.271,-2.158,0.756,32.39
2026-02-13 16:10:30.117,62.300,0.034032,-0.019510,1.777764,0.981,-2.143,0.756,32.20
2026-02-13 16:10:30.217,62.400,0.033544,-0.014383,1.771905,1.301,-2.219,0.733,32.25
2026-02-13 16:10:30.317,62.500,0.033056,-0.021463,1.776544,1.126,-2.357,0.924,32.39
2026-02-13 16:10:30.417,62.600,0.031347,-0.019022,1.779229,1.194,-2.349,0.955,32.39
2026-02-13 16:10:30.517,62.700,0.031347,-0.016580,1.781182,1.263,-1.952,0.947,32.10
2026-02-13 16:10:30.617,62.800,0.032079,-0.020730,1.773858,1.187,-2.395,0.741,32.29
2026-02-13 16:10:30.717,62.900,0.031591,-0.018533,1.774590,1.370,-2.204,0.520,32.20
2026-02-13 16:10:30.817,63.000,0.029394,-0.020486,1.778985,1.103,-2.265,0.596,32.29
2026-02-13 16:10:30.917,63.100,0.033788,-0.019266,1.772637,1.133,-2.166,0.795,32.20
2026-02-13 16:10:31.017,63.200,0.033300,-0.017801,1.779717,1.240,-2.296,0.657,32.25
2026-02-13 16:10:31.117,63.300,0.033056,-0.016336,1.772881,1.026,-2.303,0.909,32.29
2026-02-13 16:10:31.217,63.400,0.030858,-0.018533,1.777764,1.087,-2.235,0.878,32.54
2026-02-13 16:10:31.317,63.500,0.029394,-0.017557,1.774835,1.141,-2.006,0.917,32.39
2026-02-13 16:10:31.417,63.600,0.032567,-0.020242,1.773126,1.072,-2.181,0.901,32.39
2026-02-13 16:10:31.517,63.700,0.032567,-0.015848,1.780938,1.210,-2.395,0.871,32.54
2026-02-13 16:10:31.617,63.800,0.035497,-0.018533,1.772393,1.026,-2.196,0.596,32.54
2026-02-13 16:10:31.717,63.900,0.036229,-0.019998,1.780694,1.240,-2.326,0.795,32.59
2026-02-13 16:10:31.817,64.000,0.034765,-0.018289,1.774590,1.080,-2.021,0.795,32.54
2026-02-13 16:10:31.917,64.100,0.033544,-0.022195,1.773370,1.072,-2.219,0.955,32.54
2026-02-13 16:10:32.017,64.200,0.031347,-0.017557,1.777032,1.087,-2.128,1.069,32.39
2026-02-13 16:10:32.117,64.300,0.035009,-0.017313,1.783135,1.187,-2.448,0.978,32.39
2026-02-13 16:10:32.217,64.400,0.033300,-0.019022,1.774346,1.248,-2.509,1.039,32.20
2026-02-13 16:10:32.317,64.500,0.033544,-0.017557,1.782159,1.049,-2.311,0.688,32.10
2026-02-13 16:10:32.417,64.600,0.031347,-0.014383,1.774102,1.126,-2.364,0.634,32.29
2026-02-13 16:10:32.517,64.700,0.033544,-0.018045,1.781426,0.958,-1.929,0.543,32.00
2026-02-13 16:10:32.617,64.800,0.033788,-0.019266,1.772637,1.202,-2.395,1.054,32.54
2026-02-13 16:10:32.717,64.900,0.034276,-0.016824,1.769952,1.065,-2.471,0.756,32.29
2026-02-13 16:10:32.817,65.000,0.035985,-0.015604,1.779229,1.271,-2.280,0.871,32.20
2026-02-13 16:10:32.917,65.100,0.034521,-0.018533,1.774835,1.210,-2.288,0.825,32.29
2026-02-13 16:10:33.017,65.200,0.031347,-0.016336,1.773858,1.187,-2.487,0.772,32.39
2026-02-13 16:10:33.117,65.300,0.029882,-0.016824,1.778008,1.080,-2.540,0.733,32.39
2026-02-13 16:10:33.217,65.400,0.036718,-0.016092,1.774835,1.171,-2.204,0.779,32.59
2026-02-13 16:10:33.317,65.500,0.035253,-0.018777,1.776299,0.965,-2.120,0.718,32.39
2026-02-13 16:10:33.417,65.600,0.032323,-0.015848,1.778008,1.126,-2.219,0.863,32.39
2026-02-13 16:10:33.517,65.700,0.033544,-0.016824,1.777032,1.271,-2.250,1.008,32.20
2026-02-13 16:10:33.617,65.800,0.033544,-0.019754,1.780450,1.202,-2.112,0.795,32.39
2026-02-13 16:10:33.717,65.900,0.035009,-0.019998,1.779229,1.087,-2.112,0.840,32.44
2026-02-13 16:10:33.817,66.000,0.030126,-0.018045,1.771661,1.263,-2.250,0.703,32.25
2026-02-13 16:10:33.917,66.100,0.033056,-0.018045,1.778497,1.217,-2.319,0.566,32.54
2026-02-13 16:10:34.017,66.200,0.033056,-0.015115,1.779473,1.156,-2.341,0.848,32.54
2026-02-13 16:10:34.117,66.300,0.036229,-0.015359,1.778253,1.339,-2.051,0.901,32.54
2026-02-13 16:10:34.217,66.400,0.033056,-0.016580,1.776055,0.988,-2.296,0.772,32.44
2026-02-13 16:10:34.317,66.500,0.033788,-0.018289,1.781426,1.294,-2.097,0.520,32.29
2026-02-13 16:10:34.417,66.600,0.031103,-0.018045,1.774102,1.171,-2.082,0.840,32.39
2026-02-13 16:10:34.517,66.700,0.032812,-0.018289,1.772637,1.194,-2.258,0.894,32.10
2026-02-13 16:10:34.617,66.800,0.036229,-0.017313,1.780206,0.958,-2.204,0.634,32.54
2026-02-13 16:10:34.717,66.900,0.033544,-0.013406,1.775567,0.981,-2.273,0.886,32.44
2026-02-13 16:10:34.817,67.000,0.031591,-0.017557,1.777276,1.110,-2.334,0.649,32.29
2026-02-13 16:10:34.917,67.100,0.029149,-0.018533,1.768487,1.072,-2.051,0.619,32.54
2026-02-13 16:10:35.017,67.200,0.032567,-0.015359,1.777520,1.087,-1.967,0.779,32.20
2026-02-13 16:10:35.118,67.300,0.031103,-0.016336,1.775323,1.026,-2.479,0.856,32.78
2026-02-13 16:10:35.218,67.400,0.033300,-0.018777,1.770440,1.019,-2.357,0.779,32.59
2026-02-13 16:10:35.318,67.500,0.033788,-0.017068,1.771172,1.072,-2.387,0.543,32.25
2026-02-13 16:10:35.418,67.600,0.030614,-0.020975,1.776544,1.423,-2.174,0.848,32.25
2026-02-13 16:10:35.517,67.700,0.033788,-0.019022,1.775323,1.240,-2.448,0.688,32.59
2026-02-13 16:10:35.617,67.800,0.033544,-0.019998,1.778253,1.072,-2.235,0.764,32.20
2026-02-13 16:10:35.717,67.900,0.033544,-0.017801,1.780206,1.278,-2.464,0.619,32.29
2026-02-13 16:10:35.817,68.000,0.035009,-0.018777,1.777764,1.393,-1.922,0.611,32.44
2026-02-13 16:10:35.917,68.100,0.034765,-0.018777,1.775567,1.057,-2.410,1.069,32.25
2026-02-13 16:10:36.017,68.200,0.032567,-0.016092,1.775079,0.965,-2.273,1.031,32.39
2026-02-13 16:10:36.118,68.300,0.034276,-0.020242,1.773370,1.210,-2.403,0.909,32.25
2026-02-13 16:10:36.218,68.400,0.033056,-0.016092,1.772637,1.042,-2.273,0.878,32.64
2026-02-13 16:10:36.318,68.500,0.033056,-0.013895,1.781182,1.095,-1.990,0.680,32.20
2026-02-13 16:10:36.417,68.600,0.033300,-0.021219,1.774102,1.072,-2.212,0.573,32.78
2026-02-13 16:10:36.518,68.700,0.035009,-0.016336,1.777032,1.393,-2.296,0.649,32.05
2026-02-13 16:10:36.617,68.800,0.034521,-0.017313,1.776055,1.042,-2.181,0.833,32.29
2026-02-13 16:10:36.717,68.900,0.033056,-0.020242,1.775079,1.179,-2.204,0.993,32.64
2026-02-13 16:10:36.817,69.000,0.038427,-0.019266,1.778253,1.156,-2.174,1.024,32.54
2026-02-13 16:10:36.917,69.100,0.035497,-0.016092,1.778008,1.133,-2.273,0.962,32.54
2026-02-13 16:10:37.017,69.200,0.034521,-0.019510,1.771905,1.286,-2.448,0.756,32.59
2026-02-13 16:10:37.117,69.300,0.039159,-0.019998,1.778741,1.309,-2.051,0.764,32.54
2026-02-13 16:10:37.217,69.400,0.035009,-0.015115,1.776055,1.110,-2.326,0.878,32.25
2026-02-13 16:10:37.317,69.500,0.034276,-0.013406,1.771417,1.072,-2.204,0.741,32.54
2026-02-13 16:10:37.417,69.600,0.032567,-0.020730,1.774590,1.080,-2.326,0.711,32.59
2026-02-13 16:10:37.517,69.700,0.034521,-0.018045,1.774590,1.202,-2.456,0.894,32.39
2026-02-13 16:10:37.617,69.800,0.035497,-0.018777,1.780450,0.950,-2.112,0.840,32.64
2026-02-13 16:10:37.717,69.900,0.030858,-0.015359,1.780694,1.011,-2.303,0.672,32.44
2026-02-13 16:10:37.818,70.000,0.038427,-0.015848,1.779717,1.095,-1.929,0.520,32.29
2026-02-13 16:10:37.918,70.100,0.035741,-0.019754,1.774835,1.126,-2.456,0.932,32.25
2026-02-13 16:10:38.017,70.200,0.035009,-0.017313,1.780694,1.141,-2.258,0.535,32.25
2026-02-13 16:10:38.117,70.300,0.035253,-0.018289,1.772149,1.179,-2.311,0.787,32.54
2026-02-13 16:10:38.217,70.400,0.035497,-0.019022,1.779962,1.255,-2.509,0.627,32.59
2026-02-13 16:10:38.317,70.500,0.034521,-0.016580,1.780206,1.469,-2.196,0.619,32.25
2026-02-13 16:10:38.417,70.600,0.035253,-0.018045,1.774102,1.263,-2.112,0.802,32.44
2026-02-13 16:10:38.517,70.700,0.035985,-0.019754,1.774590,1.042,-2.235,0.634,32.54
2026-02-13 16:10:38.617,70.800,0.035009,-0.021707,1.775567,1.149,-2.258,0.680,32.44
2026-02-13 16:10:38.717,70.900,0.032323,-0.013162,1.777520,1.202,-2.357,0.878,32.39
2026-02-13 16:10:38.818,71.000,0.032323,-0.017801,1.776544,1.164,-2.105,0.955,32.64
2026-02-13 16:10:38.918,71.100,0.028173,-0.018289,1.779717,1.316,-2.319,0.909,32.64
2026-02-13 16:10:39.018,71.200,0.032812,-0.016336,1.776544,1.026,-2.418,0.672,32.44
2026-02-13 16:10:39.117,71.300,0.034276,-0.018045,1.774102,1.065,-2.112,0.772,32.59
2026-02-13 16:10:39.217,71.400,0.030370,-0.017313,1.772393,1.217,-2.372,0.733,32.39
2026-02-13 16:10:39.317,71.500,0.033300,-0.019022,1.780938,1.080,-2.128,0.512,32.29
2026-02-13 16:10:39.417,71.600,0.036962,-0.017557,1.779473,1.118,-2.112,0.940,32.20
2026-02-13 16:10:39.517,71.700,0.031591,-0.021463,1.775567,1.286,-2.105,0.909,32.39
2026-02-13 16:10:39.617,71.800,0.032812,-0.021463,1.775811,1.095,-2.326,0.871,32.54
2026-02-13 16:10:39.717,71.900,0.030370,-0.014871,1.777520,1.225,-2.471,0.772,32.59
2026-02-13 16:10:39.818,72.000,0.032567,-0.015848,1.775567,1.248,-2.151,0.940,32.20
2026-02-13 16:10:39.918,72.100,0.032079,-0.016092,1.774346,1.065,-2.403,0.840,32.25
2026-02-13 16:10:40.017,72.200,0.033056,-0.017801,1.770440,1.156,-2.425,0.787,32.59
2026-02-13 16:10:40.117,72.300,0.032079,-0.018289,1.779717,1.217,-2.273,0.917,32.59
2026-02-13 16:10:40.217,72.400,0.034521,-0.016336,1.778008,1.271,-2.525,0.619,32.54
2026-02-13 16:10:40.317,72.500,0.029638,-0.017068,1.783135,1.049,-2.387,0.711,32.54
2026-02-13 16:10:40.417,72.600,0.034032,-0.017557,1.776788,1.225,-2.487,0.726,32.59
2026-02-13 16:10:40.518,72.700,0.036718,-0.020242,1.775079,1.019,-2.364,0.764,32.10
2026-02-13 16:10:40.617,72.800,0.038427,-0.019754,1.775811,0.996,-2.273,0.733,32.44
2026-02-13 16:10:40.717,72.900,0.030614,-0.016336,1.775079,1.210,-2.097,0.504,32.39
2026-02-13 16:10:40.817,73.000,0.030614,-0.018289,1.778741,1.133,-2.189,0.733,32.54
2026-02-13 16:10:40.917,73.100,0.033544,-0.018289,1.781915,1.187,-2.265,0.779,32.54
2026-02-13 16:10:41.017,73.200,0.035009,-0.016580,1.776788,1.133,-2.464,0.527,32.59
2026-02-13 16:10:41.117,73.300,0.032323,-0.017313,1.768731,1.110,-2.151,0.901,32.59
2026-02-13 16:10:41.217,73.400,0.033544,-0.019998,1.775079,1.454,-2.395,0.474,32.74
2026-02-13 16:10:41.317,73.500,0.033544,-0.018289,1.775323,1.133,-2.181,0.413,32.44
2026-02-13 16:10:41.417,73.600,0.033788,-0.019022,1.773858,1.278,-2.273,0.497,32.74
2026-02-13 16:10:41.517,73.700,0.030614,-0.018533,1.776055,1.248,-2.326,0.718,32.54
2026-02-13 16:10:41.617,73.800,0.036474,-0.016336,1.774590,1.355,-2.166,0.909,32.54
2026-02-13 16:10:41.717,73.900,0.039403,-0.018289,1.776055,0.988,-2.013,1.062,32.54
2026-02-13 16:10:41.817,74.000,0.032812,-0.017068,1.779229,1.156,-2.311,0.779,32.25
2026-02-13 16:10:41.917,74.100,0.032079,-0.019754,1.771905,1.225,-2.357,0.787,32.29
2026-02-13 16:10:42.017,74.200,0.031347,-0.013895,1.772881,1.278,-2.235,0.894,32.44
2026-02-13 16:10:42.117,74.300,0.035253,-0.017557,1.778253,1.110,-2.235,0.772,32.64
2026-02-13 16:10:42.217,74.400,0.035253,-0.016336,1.779717,1.225,-2.616,0.756,32.25
2026-02-13 16:10:42.317,74.500,0.035985,-0.019022,1.774835,1.187,-2.418,0.886,32.39
2026-02-13 16:10:42.417,74.600,0.035497,-0.018045,1.779717,1.095,-2.380,0.909,32.25
2026-02-13 16:10:42.517,74.700,0.030858,-0.018289,1.783135,1.309,-2.319,0.642,32.10
2026-02-13 16:10:42.617,74.800,0.033056,-0.017068,1.776544,1.240,-2.044,0.779,32.64
2026-02-13 16:10:42.717,74.900,0.032323,-0.017801,1.772149,1.049,-2.593,0.764,32.29
2026-02-13 16:10:42.817,75.000,0.036229,-0.016580,1.782647,1.232,-2.158,0.802,32.29
2026-02-13 16:10:42.917,75.100,0.033788,-0.017068,1.775323,1.271,-2.204,1.046,32.20
2026-02-13 16:10:43.017,75.200,0.036718,-0.016824,1.777520,1.271,-2.258,0.810,32.25
2026-02-13 16:10:43.117,75.300,0.032323,-0.015604,1.780206,1.408,-2.349,0.840,32.25
2026-02-13 16:10:43.217,75.400,0.031591,-0.020730,1.775079,1.416,-2.166,0.970,32.44
2026-02-13 16:10:43.317,75.500,0.031103,-0.018777,1.781671,1.248,-2.044,0.940,32.59
2026-02-13 16:10:43.417,75.600,0.033544,-0.016336,1.777764,1.126,-2.212,0.718,32.29
2026-02-13 16:10:43.517,75.700,0.035253,-0.016336,1.775567,1.194,-2.143,0.573,32.54
2026-02-13 16:10:43.617,75.800,0.035009,-0.019998,1.775079,1.149,-2.334,0.825,32.29
2026-02-13 16:10:43.717,75.900,0.034032,-0.012430,1.774590,1.095,-2.296,0.749,32.29
2026-02-13 16:10:43.817,76.000,0.032323,-0.020730,1.774346,1.034,-2.074,0.787,32.20
2026-02-13 16:10:43.917,76.100,0.034765,-0.022928,1.768243,1.309,-2.334,0.833,32.44
2026-02-13 16:10:44.017,76.200,0.032323,-0.018777,1.777764,1.316,-2.441,0.917,32.59
2026-02-13 16:10:44.117,76.300,0.036718,-0.018045,1.775079,1.248,-2.166,0.848,32.29
2026-02-13 16:10:44.217,76.400,0.034521,-0.016580,1.777276,1.255,-2.341,0.894,32.29
2026-02-13 16:10:44.317,76.500,0.034276,-0.016336,1.775567,0.904,-2.258,0.825,32.39
2026-02-13 16:10:44.417,76.600,0.030614,-0.017801,1.779717,1.248,-2.265,1.008,32.59
2026-02-13 16:10:44.517,76.700,0.031103,-0.017313,1.770196,1.156,-2.204,0.772,32.39
2026-02-13 16:10:44.617,76.800,0.031591,-0.021463,1.779229,0.950,-2.181,0.718,32.20
2026-02-13 16:10:44.718,76.900,0.032323,-0.017068,1.777764,1.187,-2.311,0.604,32.39
2026-02-13 16:10:44.818,77.000,0.033056,-0.016336,1.779962,1.156,-2.433,0.627,32.54
2026-02-13 16:10:44.918,77.100,0.034276,-0.019754,1.778008,1.194,-2.166,0.871,32.54
2026-02-13 16:10:45.017,77.200,0.030126,-0.018777,1.777276,1.118,-2.196,0.772,32.29
2026-02-13 16:10:45.118,77.300,0.035985,-0.017313,1.775323,1.194,-2.051,0.642,32.39
2026-02-13 16:10:45.217,77.400,0.034276,-0.015359,1.778497,1.378,-2.151,1.191,32.29
2026-02-13 16:10:45.317,77.500,0.035985,-0.020486,1.777520,1.408,-2.143,1.046,32.44
2026-02-13 16:10:45.417,77.600,0.033056,-0.020730,1.772149,1.248,-2.258,0.741,32.59
2026-02-13 16:10:45.517,77.700,0.032812,-0.019022,1.780206,1.339,-2.174,0.558,32.54
2026-02-13 16:10:45.617,77.800,0.035253,-0.018289,1.774102,1.339,-2.181,0.779,32.25
2026-02-13 16:10:45.717,77.900,0.031835,-0.021463,1.778741,1.110,-2.357,1.016,32.64
2026-02-13 16:10:45.818,78.000,0.034521,-0.014383,1.778985,0.858,-2.296,0.871,32.39
2026-02-13 16:10:45.918,78.100,0.033788,-0.014139,1.778985,1.347,-2.097,0.573,32.59
2026-02-13 16:10:46.018,78.200,0.032812,-0.020242,1.775567,1.179,-2.212,0.833,32.25
2026-02-13 16:10:46.117,78.300,0.034032,-0.017313,1.777764,1.072,-2.181,0.688,32.78
2026-02-13 16:10:46.218,78.400,0.031835,-0.019022,1.780206,1.362,-2.494,0.833,32.39
2026-02-13 16:10:46.317,78.500,0.033544,-0.019998,1.780206,1.034,-2.479,0.802,32.44
2026-02-13 16:10:46.417,78.600,0.032567,-0.022439,1.774590,1.301,-2.357,0.817,32.25
2026-02-13 16:10:46.517,78.700,0.034276,-0.016824,1.778741,1.194,-1.868,0.604,32.59
2026-02-13 16:10:46.617,78.800,0.031591,-0.016092,1.779962,1.232,-2.326,0.871,32.25
2026-02-13 16:10:46.717,78.900,0.033788,-0.019510,1.781915,1.026,-2.242,0.856,32.29
2026-02-13 16:10:46.817,79.000,0.032079,-0.018777,1.773858,1.232,-2.334,0.649,32.64
2026-02-13 16:10:46.917,79.100,0.035741,-0.017557,1.777764,1.286,-2.326,0.955,32.25
2026-02-13 16:10:47.018,79.200,0.033300,-0.018533,1.773858,1.202,-2.311,0.802,32.74
2026-02-13 16:10:47.117,79.300,0.036229,-0.020486,1.776788,1.202,-2.235,0.848,32.29
2026-02-13 16:10:47.217,79.400,0.035497,-0.016336,1.780938,1.065,-2.097,0.680,32.59
2026-02-13 16:10:47.317,79.500,0.035253,-0.017801,1.775323,1.217,-2.303,0.863,32.54
2026-02-13 16:10:47.417,79.600,0.034521,-0.015115,1.765801,1.042,-2.219,0.932,32.44
2026-02-13 16:10:47.517,79.700,0.033056,-0.020730,1.773126,1.072,-2.265,0.825,32.25
2026-02-13 16:10:47.617,79.800,0.035253,-0.020730,1.773370,1.026,-2.341,0.878,32.25
2026-02-13 16:10:47.718,79.900,0.034032,-0.017557,1.784600,0.981,-2.273,0.840,32.39
2026-02-13 16:10:47.818,80.000,0.037450,-0.017068,1.777032,1.141,-2.227,0.627,32.54
2026-02-13 16:10:47.917,80.100,0.034521,-0.019022,1.772393,0.912,-2.273,0.672,32.20
2026-02-13 16:10:48.017,80.200,0.030614,-0.022195,1.776299,1.187,-2.235,0.817,32.59
2026-02-13 16:10:48.117,80.300,0.032812,-0.017801,1.771417,1.149,-2.219,0.642,32.44
2026-02-13 16:10:48.217,80.400,0.030126,-0.019266,1.782403,1.019,-2.143,0.611,32.29
2026-02-13 16:10:48.317,80.500,0.032567,-0.016336,1.774590,1.225,-2.448,0.680,32.29
2026-02-13 16:10:48.417,80.600,0.031835,-0.014871,1.776299,1.332,-2.479,0.749,32.25
2026-02-13 16:10:48.517,80.700,0.034521,-0.017313,1.778741,1.049,-2.181,1.031,32.54
2026-02-13 16:10:48.617,80.800,0.034276,-0.017313,1.776299,1.019,-2.280,0.581,32.44
2026-02-13 16:10:48.717,80.900,0.032567,-0.022195,1.780450,1.179,-2.441,0.627,32.39
2026-02-13 16:10:48.818,81.000,0.032812,-0.017557,1.775567,0.881,-2.219,0.817,32.59
2026-02-13 16:10:48.917,81.100,0.035985,-0.015604,1.778741,0.881,-2.212,0.901,32.64
2026-02-13 16:10:49.018,81.200,0.035741,-0.017801,1.779962,1.133,-2.143,0.672,32.39
2026-02-13 16:10:49.117,81.300,0.032323,-0.017557,1.775079,1.194,-2.044,0.772,32.59
2026-02-13 16:10:49.217,81.400,0.031835,-0.015848,1.773858,0.996,-2.319,0.970,32.44
2026-02-13 16:10:49.317,81.500,0.032323,-0.019754,1.774102,0.973,-2.174,1.031,32.64
2026-02-13 16:10:49.417,81.600,0.037938,-0.018533,1.778008,1.164,-2.326,0.726,32.20
2026-02-13 16:10:49.517,81.700,0.034032,-0.016092,1.779473,1.255,-2.174,0.764,32.44
2026-02-13 16:10:49.617,81.800,0.033056,-0.016092,1.778008,1.034,-2.509,0.856,32.29
2026-02-13 16:10:49.717,81.900,0.035985,-0.016824,1.777032,1.126,-2.319,0.634,32.29
2026-02-13 16:10:49.818,82.000,0.035497,-0.022439,1.777032,1.263,-2.105,0.856,32.20
2026-02-13 16:10:49.918,82.100,0.037938,-0.020730,1.776788,1.042,-2.166,0.665,32.39
2026-02-13 16:10:50.017,82.200,0.030614,-0.014139,1.778008,1.087,-2.387,0.825,32.39
2026-02-13 16:10:50.117,82.300,0.028905,-0.019022,1.778497,1.232,-2.212,0.817,32.39
2026-02-13 16:10:50.217,82.400,0.031103,-0.019754,1.770440,1.316,-2.349,0.940,32.64
2026-02-13 16:10:50.317,82.500,0.035253,-0.019754,1.775079,1.164,-2.242,0.703,32.39
2026-02-13 16:10:50.417,82.600,0.036229,-0.017313,1.778497,1.141,-2.334,0.856,32.54
2026-02-13 16:10:50.517,82.700,0.032567,-0.018533,1.777276,1.232,-2.090,0.947,32.59
2026-02-13 16:10:50.617,82.800,0.032079,-0.017801,1.773370,1.309,-2.303,0.962,32.59
2026-02-13 16:10:50.717,82.900,0.034765,-0.017068,1.781671,1.103,-2.280,0.657,32.54
2026-02-13 16:10:50.818,83.000,0.032812,-0.017801,1.778741,1.362,-2.280,0.474,32.39
2026-02-13 16:10:50.918,83.100,0.031835,-0.019266,1.769464,1.141,-2.326,0.840,32.29
2026-02-13 16:10:51.017,83.200,0.030614,-0.015115,1.776788,1.026,-2.128,0.741,32.44
2026-02-13 16:10:51.117,83.300,0.034276,-0.019754,1.778253,1.217,-2.174,0.703,32.74
2026-02-13 16:10:51.217,83.400,0.032812,-0.013162,1.776544,1.217,-2.273,0.688,32.39
2026-02-13 16:10:51.317,83.500,0.037450,-0.018777,1.777276,1.080,-2.303,0.924,32.64
2026-02-13 16:10:51.417,83.600,0.034276,-0.018533,1.780450,1.171,-2.212,0.772,32.29
2026-02-13 16:10:51.517,83.700,0.032323,-0.020242,1.775079,1.225,-2.403,0.886,32.59
2026-02-13 16:10:51.617,83.800,0.032323,-0.018289,1.767755,1.003,-2.341,0.550,32.59
2026-02-13 16:10:51.717,83.900,0.034765,-0.016824,1.778253,1.179,-2.265,0.817,32.59
2026-02-13 16:10:51.817,84.000,0.034276,-0.021219,1.777520,1.225,-2.242,0.665,32.44
2026-02-13 16:10:51.917,84.100,0.035497,-0.017313,1.779717,1.057,-2.112,1.062,32.39
2026-02-13 16:10:52.017,84.200,0.032323,-0.014627,1.775567,1.110,-2.326,0.833,32.39
2026-02-13 16:10:52.117,84.300,0.036962,-0.014627,1.781426,0.996,-2.242,0.688,32.29
2026-02-13 16:10:52.217,84.400,0.034276,-0.014139,1.776788,1.286,-2.334,0.795,32.59
2026-02-13 16:10:52.317,84.500,0.029149,-0.014871,1.777764,1.164,-2.105,0.787,32.39
2026-02-13 16:10:52.418,84.600,0.034765,-0.019510,1.771417,1.103,-2.051,0.978,32.10
2026-02-13 16:10:52.517,84.700,0.035253,-0.016336,1.773370,0.973,-2.189,1.016,32.39
2026-02-13 16:10:52.617,84.800,0.030858,-0.019266,1.780450,1.026,-2.258,0.871,32.44
2026-02-13 16:10:52.717,84.900,0.035741,-0.019022,1.777520,1.217,-2.143,0.909,32.54
2026-02-13 16:10:52.817,85.000,0.033056,-0.020730,1.777032,1.278,-2.456,1.062,32.25
2026-02-13 16:10:52.917,85.100,0.031103,-0.020242,1.778008,1.240,-2.387,0.863,32.54
2026-02-13 16:10:53.017,85.200,0.032323,-0.016092,1.779717,1.164,-2.303,0.878,32.59
2026-02-13 16:10:53.117,85.300,0.032812,-0.020242,1.776055,1.156,-2.334,0.840,32.20
2026-02-13 16:10:53.217,85.400,0.030614,-0.016580,1.779229,0.988,-2.464,0.665,32.39
2026-02-13 16:10:53.317,85.500,0.032567,-0.022195,1.779962,1.202,-1.861,0.680,32.59
2026-02-13 16:10:53.417,85.600,0.034521,-0.021219,1.775567,1.110,-2.288,0.596,32.74
2026-02-13 16:10:53.517,85.700,0.037694,-0.019754,1.777032,1.202,-2.250,0.688,32.54
2026-02-13 16:10:53.617,85.800,0.031835,-0.014871,1.773614,1.141,-2.143,0.886,32.44
2026-02-13 16:10:53.717,85.900,0.032812,-0.020242,1.778985,1.362,-2.196,0.588,32.54
2026-02-13 16:10:53.817,86.000,0.035253,-0.019266,1.779717,1.149,-2.036,0.741,32.54
2026-02-13 16:10:53.917,86.100,0.035009,-0.015359,1.778497,1.133,-2.509,0.779,32.20
2026-02-13 16:10:54.017,86.200,0.034032,-0.015115,1.778253,1.240,-2.067,0.947,32.20
2026-02-13 16:10:54.117,86.300,0.038183,-0.016092,1.778741,1.011,-2.151,0.619,32.44
2026-02-13 16:10:54.217,86.400,0.032323,-0.017557,1.777764,1.187,-2.288,0.772,32.29
2026-02-13 16:10:54.317,86.500,0.033544,-0.017557,1.772149,0.981,-2.280,0.825,32.44
2026-02-13 16:10:54.417,86.600,0.033056,-0.018289,1.777276,1.240,-2.235,0.382,32.29
2026-02-13 16:10:54.518,86.700,0.030614,-0.016824,1.780938,1.500,-2.105,0.741,32.39
2026-02-13 16:10:54.617,86.800,0.033300,-0.016336,1.777276,1.110,-2.403,0.878,32.64
2026-02-13 16:10:54.718,86.900,0.032812,-0.016824,1.781915,1.210,-2.227,0.802,32.59
2026-02-13 16:10:54.817,87.000,0.037938,-0.016092,1.783135,1.065,-2.258,0.749,32.25
2026-02-13 16:10:54.917,87.100,0.033300,-0.016336,1.776055,0.836,-2.288,0.772,32.25
2026-02-13 16:10:55.017,87.200,0.035497,-0.018777,1.780938,1.072,-2.311,0.955,32.20
2026-02-13 16:10:55.117,87.300,0.037206,-0.018045,1.776299,1.232,-2.311,0.558,32.64
2026-02-13 16:10:55.217,87.400,0.035009,-0.022439,1.776544,1.324,-2.303,0.871,32.20
2026-02-13 16:10:55.317,87.500,0.031347,-0.019510,1.781182,1.469,-2.372,0.741,32.74
2026-02-13 16:10:55.417,87.600,0.030614,-0.017313,1.777520,1.202,-2.334,0.802,32.54
2026-02-13 16:10:55.518,87.700,0.031591,-0.019754,1.777764,1.133,-2.250,0.878,32.44
2026-02-13 16:10:55.618,87.800,0.034032,-0.017557,1.772637,1.225,-2.181,0.947,32.64
2026-02-13 16:10:55.717,87.900,0.034765,-0.019022,1.777764,1.149,-2.112,0.611,32.20
2026-02-13 16:10:55.817,88.000,0.032567,-0.016336,1.773614,1.286,-2.326,0.726,32.44
2026-02-13 16:10:55.917,88.100,0.031591,-0.017313,1.780694,1.370,-2.105,0.688,32.74
2026-02-13 16:10:56.017,88.200,0.033056,-0.020242,1.776299,1.271,-2.250,1.024,32.39
2026-02-13 16:10:56.117,88.300,0.034521,-0.017068,1.777032,1.400,-2.204,0.672,32.29
2026-02-13 16:10:56.217,88.400,0.033544,-0.020486,1.777764,1.164,-2.235,0.680,32.29
2026-02-13 16:10:56.317,88.500,0.034521,-0.020486,1.774346,1.362,-2.258,0.695,32.54
2026-02-13 16:10:56.417,88.600,0.035253,-0.019754,1.770928,1.240,-2.112,0.398,32.25
2026-02-13 16:10:56.517,88.700,0.033544,-0.019998,1.771661,1.141,-2.112,0.940,32.29
2026-02-13 16:10:56.617,88.800,0.030126,-0.016336,1.774835,1.232,-2.563,0.619,32.59
2026-02-13 16:10:56.717,88.900,0.034276,-0.020975,1.772881,1.316,-2.151,0.756,32.39
2026-02-13 16:10:56.817,89.000,0.034521,-0.018289,1.773858,1.179,-2.074,0.459,32.59
2026-02-13 16:10:56.917,89.100,0.033056,-0.018045,1.772393,1.149,-2.090,0.840,32.20
2026-02-13 16:10:57.017,89.200,0.030370,-0.019022,1.778253,1.217,-2.479,0.726,32.25
2026-02-13 16:10:57.117,89.300,0.036229,-0.017801,1.774835,1.240,-2.425,1.046,32.59
2026-02-13 16:10:57.217,89.400,0.033056,-0.021219,1.779962,1.324,-2.204,0.878,32.74
2026-02-13 16:10:57.317,89.500,0.032079,-0.018045,1.782159,1.263,-2.433,0.634,32.39
2026-02-13 16:10:57.418,89.600,0.033788,-0.019510,1.777032,1.065,-2.059,0.840,32.44
2026-02-13 16:10:57.517,89.700,0.033788,-0.019022,1.780450,1.202,-2.296,0.848,32.54
2026-02-13 16:10:57.617,89.800,0.033788,-0.015359,1.775811,1.149,-2.311,0.520,32.29
2026-02-13 16:10:57.717,89.900,0.035253,-0.020242,1.777032,1.423,-2.280,0.901,32.29
2026-02-13 16:10:57.818,90.000,0.031103,-0.019754,1.773858,1.164,-2.212,0.504,32.29
2026-02-13 16:10:57.918,90.100,0.030126,-0.016336,1.782891,1.087,-2.196,0.649,32.44
2026-02-13 16:10:58.017,90.200,0.032812,-0.014383,1.778741,1.179,-2.494,0.657,32.29
2026-02-13 16:10:58.117,90.300,0.030370,-0.019754,1.775811,1.217,-2.364,0.924,32.44
2026-02-13 16:10:58.217,90.400,0.030370,-0.017557,1.779229,1.072,-2.319,0.825,32.39
2026-02-13 16:10:58.317,90.500,0.032323,-0.017801,1.778985,1.026,-2.258,0.871,32.20
2026-02-13 16:10:58.417,90.600,0.030126,-0.013895,1.773614,1.110,-2.174,0.604,32.44
2026-02-13 16:10:58.517,90.700,0.036474,-0.021951,1.777276,1.278,-2.258,0.833,32.39
2026-02-13 16:10:58.617,90.800,0.031591,-0.016092,1.778497,1.286,-2.189,0.863,32.39
2026-02-13 16:10:58.717,90.900,0.032079,-0.016336,1.778008,1.118,-2.204,0.909,32.59
2026-02-13 16:10:58.818,91.000,0.034032,-0.017557,1.776299,1.072,-2.273,0.756,32.44
2026-02-13 16:10:58.918,91.100,0.035253,-0.017313,1.771661,1.301,-2.204,0.749,32.39
2026-02-13 16:10:59.018,91.200,0.036474,-0.017313,1.779229,1.263,-2.143,0.795,32.25
2026-02-13 16:10:59.118,91.300,0.035253,-0.019510,1.780450,0.988,-2.555,0.787,32.39
2026-02-13 16:10:59.217,91.400,0.028173,-0.018045,1.778497,1.095,-2.166,0.711,32.59
2026-02-13 16:10:59.317,91.500,0.032812,-0.016336,1.778985,0.973,-2.273,0.695,32.54
2026-02-13 16:10:59.417,91.600,0.031103,-0.018289,1.777520,1.316,-2.555,1.069,32.54
2026-02-13 16:10:59.517,91.700,0.033788,-0.020730,1.775323,1.202,-2.364,0.871,32.59
2026-02-13 16:10:59.617,91.800,0.034765,-0.016336,1.779717,1.149,-2.151,0.795,32.20
2026-02-13 16:10:59.717,91.900,0.031835,-0.015848,1.782159,1.385,-2.227,0.787,32.54
2026-02-13 16:10:59.818,92.000,0.031591,-0.018289,1.774346,1.271,-2.746,0.772,32.44
2026-02-13 16:10:59.918,92.100,0.033788,-0.017557,1.777276,1.019,-2.242,0.619,32.39
2026-02-13 16:11:00.017,92.200,0.036229,-0.010965,1.782891,1.248,-2.250,0.550,32.64
2026-02-13 16:11:00.117,92.300,0.032323,-0.018289,1.774102,1.049,-2.456,0.817,32.25
2026-02-13 16:11:00.217,92.400,0.033056,-0.014627,1.777276,1.286,-2.135,0.817,32.54
2026-02-13 16:11:00.317,92.500,0.033788,-0.021951,1.777032,1.179,-2.265,0.756,32.59
2026-02-13 16:11:00.417,92.600,0.033788,-0.019022,1.773370,1.461,-2.433,0.840,32.78
2026-02-13 16:11:00.517,92.700,0.036229,-0.019266,1.774590,1.118,-2.051,0.940,32.39
2026-02-13 16:11:00.617,92.800,0.032567,-0.020242,1.774590,1.202,-1.975,0.840,32.20
2026-02-13 16:11:00.717,92.900,0.034765,-0.016336,1.776299,1.179,-2.357,0.795,32.59
2026-02-13 16:11:00.817,93.000,0.034032,-0.022928,1.779717,1.087,-2.128,0.924,32.39
2026-02-13 16:11:00.917,93.100,0.033300,-0.016580,1.775567,1.034,-2.029,0.840,32.44
2026-02-13 16:11:01.017,93.200,0.030370,-0.018289,1.779229,0.935,-2.258,0.779,32.39
2026-02-13 16:11:01.117,93.300,0.034521,-0.017801,1.775811,1.049,-2.074,0.764,32.44
2026-02-13 16:11:01.217,93.400,0.029638,-0.018289,1.775079,1.133,-2.502,0.833,32.29
2026-02-13 16:11:01.317,93.500,0.029882,-0.019510,1.774835,0.881,-2.250,0.665,32.64
2026-02-13 16:11:01.417,93.600,0.033544,-0.016092,1.777520,1.103,-2.242,1.016,32.59
2026-02-13 16:11:01.517,93.700,0.034276,-0.014871,1.775811,1.087,-2.280,0.863,32.44
2026-02-13 16:11:01.617,93.800,0.035253,-0.020975,1.782647,0.958,-2.181,1.016,32.29
2026-02-13 16:11:01.717,93.900,0.031591,-0.018045,1.781671,1.049,-2.418,1.008,32.20
2026-02-13 16:11:01.817,94.000,0.031835,-0.018045,1.774835,1.049,-2.334,0.772,32.59
2026-02-13 16:11:01.917,94.100,0.033544,-0.016092,1.777764,1.385,-2.166,0.924,32.44
2026-02-13 16:11:02.017,94.200,0.032079,-0.020730,1.774102,1.019,-2.181,0.947,32.59
2026-02-13 16:11:02.117,94.300,0.037694,-0.014871,1.780206,1.149,-2.433,0.596,32.39
2026-02-13 16:11:02.217,94.400,0.032812,-0.019022,1.772393,1.179,-2.051,0.840,32.39
2026-02-13 16:11:02.317,94.500,0.034032,-0.018777,1.779717,1.339,-2.166,0.764,32.54
2026-02-13 16:11:02.417,94.600,0.029149,-0.018533,1.780450,1.171,-2.227,0.924,32.44
2026-02-13 16:11:02.517,94.700,0.035253,-0.016824,1.775079,1.225,-2.143,0.718,32.59
2026-02-13 16:11:02.617,94.800,0.034765,-0.019998,1.772881,1.324,-2.303,0.672,32.54
2026-02-13 16:11:02.717,94.900,0.032323,-0.016092,1.779717,1.248,-2.196,0.833,32.29
2026-02-13 16:11:02.817,95.000,0.036962,-0.020975,1.784600,1.149,-2.311,0.619,32.39
2026-02-13 16:11:02.917,95.100,0.033300,-0.014871,1.776055,1.042,-2.448,0.749,32.59
2026-02-13 16:11:03.017,95.200,0.031835,-0.015359,1.780206,1.240,-2.158,0.962,32.29
2026-02-13 16:11:03.117,95.300,0.032567,-0.017068,1.779473,1.210,-2.616,0.711,32.64
2026-02-13 16:11:03.217,95.400,0.030370,-0.019510,1.777764,1.171,-2.548,0.924,32.59
2026-02-13 16:11:03.317,95.500,0.034276,-0.018045,1.776299,1.171,-2.341,0.703,32.59
2026-02-13 16:11:03.417,95.600,0.033300,-0.021219,1.776788,1.133,-2.372,0.634,32.54
2026-02-13 16:11:03.517,95.700,0.035253,-0.017313,1.773126,1.019,-2.227,0.642,32.20
2026-02-13 16:11:03.617,95.800,0.033300,-0.019510,1.778008,1.187,-2.181,0.840,32.59
2026-02-13 16:11:03.717,95.900,0.033544,-0.017557,1.778741,1.416,-2.189,0.917,32.25
2026-02-13 16:11:03.818,96.000,0.032079,-0.020730,1.778497,1.263,-2.189,0.695,32.20
2026-02-13 16:11:03.918,96.100,0.037938,-0.019510,1.776544,1.011,-2.319,0.779,32.59
2026-02-13 16:11:04.018,96.200,0.029882,-0.020242,1.780938,1.095,-2.151,0.772,32.54
2026-02-13 16:11:04.117,96.300,0.031835,-0.022439,1.771905,1.347,-1.990,0.787,32.10
2026-02-13 16:11:04.218,96.400,0.036474,-0.019998,1.777520,1.179,-2.105,0.749,32.59
2026-02-13 16:11:04.317,96.500,0.032567,-0.018777,1.773614,1.164,-2.296,1.016,32.59
2026-02-13 16:11:04.417,96.600,0.036474,-0.019510,1.768487,1.240,-2.418,0.672,32.44
2026-02-13 16:11:04.517,96.700,0.026952,-0.019266,1.780206,1.011,-2.494,0.688,32.74
2026-02-13 16:11:04.617,96.800,0.037206,-0.016336,1.775567,1.294,-2.372,0.718,32.59
2026-02-13 16:11:04.717,96.900,0.033300,-0.014871,1.776055,1.087,-2.250,0.703,32.59
2026-02-13 16:11:04.817,97.000,0.032079,-0.019022,1.779229,1.042,-2.395,0.978,32.59
2026-02-13 16:11:04.917,97.100,0.031835,-0.016336,1.778008,1.118,-1.929,0.550,32.64
2026-02-13 16:11:05.018,97.200,0.035009,-0.017068,1.778253,1.087,-2.380,0.955,32.39
2026-02-13 16:11:05.118,97.300,0.032323,-0.018533,1.773126,1.141,-1.998,0.649,32.64
2026-02-13 16:11:05.218,97.400,0.036962,-0.019510,1.770928,1.179,-2.265,0.924,32.20
2026-02-13 16:11:05.318,97.500,0.031591,-0.016092,1.781182,0.942,-2.296,0.741,32.59
2026-02-13 16:11:05.417,97.600,0.035009,-0.016580,1.777764,1.141,-2.227,0.711,32.59
2026-02-13 16:11:05.517,97.700,0.037694,-0.017557,1.775323,1.118,-2.090,0.711,32.64
2026-02-13 16:11:05.617,97.800,0.027440,-0.019022,1.777276,1.248,-2.525,0.504,32.39
2026-02-13 16:11:05.717,97.900,0.031103,-0.017557,1.778741,1.416,-2.219,0.940,32.20
2026-02-13 16:11:05.817,98.000,0.033056,-0.014871,1.778008,1.072,-2.166,0.703,32.44
2026-02-13 16:11:05.917,98.100,0.031347,-0.016580,1.775811,0.927,-2.242,0.840,32.59
2026-02-13 16:11:06.017,98.200,0.032079,-0.018777,1.771172,1.126,-2.418,0.619,32.29
2026-02-13 16:11:06.117,98.300,0.033544,-0.017801,1.776299,1.248,-2.280,0.917,32.44
2026-02-13 16:11:06.217,98.400,0.033300,-0.019266,1.778008,1.171,-2.181,0.825,32.59
2026-02-13 16:11:06.317,98.500,0.036474,-0.016336,1.774835,1.156,-2.311,0.718,32.78
2026-02-13 16:11:06.417,98.600,0.035741,-0.015359,1.773858,1.072,-2.212,0.611,32.25
2026-02-13 16:11:06.517,98.700,0.033544,-0.013650,1.773370,0.950,-2.181,0.459,32.39
2026-02-13 16:11:06.617,98.800,0.034765,-0.018533,1.778497,0.919,-2.311,0.764,32.59
2026-02-13 16:11:06.718,98.900,0.035009,-0.019510,1.776544,1.400,-2.296,0.527,32.54
2026-02-13 16:11:06.817,99.000,0.032323,-0.020242,1.780938,1.149,-2.235,0.856,32.44
2026-02-13 16:11:06.918,99.100,0.033056,-0.019266,1.772393,1.065,-2.296,0.962,32.44
2026-02-13 16:11:07.017,99.200,0.037450,-0.018045,1.769219,1.255,-2.235,0.848,32.59
2026-02-13 16:11:07.117,99.300,0.030370,-0.018777,1.772881,1.171,-2.273,0.688,32.64
2026-02-13 16:11:07.217,99.400,0.035253,-0.014871,1.772881,1.011,-2.051,0.901,32.59
2026-02-13 16:11:07.317,99.500,0.029149,-0.016336,1.774102,0.858,-2.349,0.772,32.20
2026-02-13 16:11:07.417,99.600,0.034032,-0.015848,1.778008,1.087,-2.288,0.672,32.59
2026-02-13 16:11:07.517,99.700,0.034765,-0.018289,1.777032,1.179,-2.158,0.657,32.54
2026-02-13 16:11:07.617,99.800,0.032567,-0.018533,1.776299,1.408,-2.189,0.795,32.29
2026-02-13 16:11:07.717,99.900,0.031835,-0.020975,1.779229,1.042,-2.288,0.932,32.29
2026-02-13 16:11:07.818,100.000,0.032079,-0.018777,1.782159,1.263,-2.380,0.894,32.10
2026-02-13 16:11:07.917,100.100,0.032567,-0.017313,1.777764,1.202,-2.357,0.917,32.20
2026-02-13 16:11:08.017,100.200,0.037938,-0.013650,1.774835,0.950,-2.410,0.749,32.39
2026-02-13 16:11:08.117,100.300,0.029394,-0.021707,1.779717,1.049,-2.349,0.726,32.59
2026-02-13 16:11:08.217,100.400,0.031347,-0.018777,1.772881,1.286,-2.403,1.062,32.59
2026-02-13 16:11:08.317,100.500,0.036229,-0.014383,1.778008,1.003,-2.242,0.581,32.64
2026-02-13 16:11:08.417,100.600,0.032812,-0.016824,1.777520,1.065,-2.090,0.543,32.54
2026-02-13 16:11:08.517,100.700,0.029882,-0.018289,1.777520,1.217,-2.219,1.100,32.59
2026-02-13 16:11:08.618,100.800,0.033056,-0.020730,1.780206,1.286,-2.036,0.878,32.54
2026-02-13 16:11:08.717,100.900,0.030370,-0.019266,1.777520,1.301,-2.189,0.695,32.29
2026-02-13 16:11:08.818,101.000,0.033300,-0.019022,1.783868,1.286,-2.387,0.779,32.54
2026-02-13 16:11:08.918,101.100,0.035741,-0.020486,1.779229,1.416,-2.204,1.031,32.54
2026-02-13 16:11:09.018,101.200,0.035253,-0.020242,1.775811,1.026,-2.196,0.863,32.29
2026-02-13 16:11:09.117,101.300,0.031591,-0.017801,1.769952,1.034,-2.212,0.840,32.39
2026-02-13 16:11:09.217,101.400,0.036229,-0.014627,1.777520,1.141,-2.273,1.123,32.64
2026-02-13 16:11:09.317,101.500,0.029638,-0.015359,1.771661,1.026,-2.189,0.810,32.20
2026-02-13 16:11:09.417,101.600,0.031591,-0.016824,1.776544,1.141,-2.151,0.825,32.29
2026-02-13 16:11:09.517,101.700,0.037206,-0.016092,1.768243,1.133,-2.395,0.871,32.74
2026-02-13 16:11:09.618,101.800,0.032079,-0.019266,1.778253,1.423,-2.181,1.069,32.20
2026-02-13 16:11:09.717,101.900,0.035253,-0.017068,1.783624,0.965,-2.105,0.955,32.59
2026-02-13 16:11:09.818,102.000,0.035985,-0.019510,1.772393,1.210,-2.418,0.779,32.64
2026-02-13 16:11:09.918,102.100,0.038427,-0.013406,1.773126,1.026,-2.174,0.886,32.44
2026-02-13 16:11:10.017,102.200,0.037206,-0.018045,1.776788,1.217,-2.044,0.962,32.59
2026-02-13 16:11:10.117,102.300,0.035497,-0.013406,1.775811,1.057,-2.280,0.550,32.20
2026-02-13 16:11:10.217,102.400,0.036229,-0.019754,1.777032,1.149,-2.349,0.741,32.59
2026-02-13 16:11:10.318,102.500,0.029638,-0.016824,1.782647,1.179,-2.143,0.947,32.59
2026-02-13 16:11:10.417,102.600,0.035985,-0.018045,1.779473,1.095,-2.418,0.886,32.39
2026-02-13 16:11:10.517,102.700,0.033300,-0.015848,1.775079,1.202,-2.456,0.718,32.29
2026-02-13 16:11:10.617,102.800,0.033544,-0.013162,1.777764,1.065,-2.380,1.039,32.54
2026-02-13 16:11:10.718,102.900,0.030614,-0.016824,1.778008,1.072,-2.204,0.649,32.39
2026-02-13 16:11:10.817,103.000,0.033056,-0.019510,1.780450,1.232,-2.311,0.703,32.29
2026-02-13 16:11:10.918,103.100,0.035253,-0.017313,1.778497,1.118,-2.441,0.795,32.59
2026-02-13 16:11:11.017,103.200,0.032079,-0.014627,1.780938,1.019,-2.143,0.795,32.20
2026-02-13 16:11:11.117,103.300,0.033788,-0.020730,1.779717,1.141,-2.090,0.856,32.44
2026-02-13 16:11:11.217,103.400,0.033056,-0.016824,1.777764,1.294,-2.288,0.840,32.59
2026-02-13 16:11:11.317,103.500,0.033544,-0.018777,1.775811,1.255,-2.151,0.604,32.44
2026-02-13 16:11:11.417,103.600,0.034765,-0.017801,1.774590,1.133,-2.166,0.871,32.29
2026-02-13 16:11:11.517,103.700,0.033788,-0.017801,1.772149,1.164,-2.082,0.924,32.44
2026-02-13 16:11:11.617,103.800,0.034276,-0.016336,1.781182,1.103,-2.219,0.863,32.44
2026-02-13 16:11:11.717,103.900,0.032323,-0.016336,1.776299,1.179,-2.364,0.886,32.54
2026-02-13 16:11:11.817,104.000,0.031347,-0.014383,1.773858,1.225,-1.937,0.749,32.59
2026-02-13 16:11:11.917,104.100,0.032567,-0.016092,1.770440,1.202,-2.212,0.695,32.54
2026-02-13 16:11:12.017,104.200,0.033544,-0.021463,1.773126,1.179,-2.509,0.581,32.29
2026-02-13 16:11:12.117,104.300,0.031347,-0.018045,1.774835,1.454,-2.487,0.749,32.64
2026-02-13 16:11:12.217,104.400,0.033544,-0.019510,1.773614,1.324,-2.349,0.733,32.54
2026-02-13 16:11:12.317,104.500,0.035741,-0.017801,1.779962,1.103,-2.097,0.901,32.39
2026-02-13 16:11:12.417,104.600,0.030370,-0.017557,1.772881,1.164,-1.983,1.107,32.29
2026-02-13 16:11:12.517,104.700,0.036718,-0.018777,1.768487,1.003,-1.960,0.436,32.59
2026-02-13 16:11:12.617,104.800,0.037938,-0.015848,1.776788,1.072,-2.372,0.833,32.44
2026-02-13 16:11:12.717,104.900,0.033056,-0.018533,1.771905,1.126,-2.509,0.726,32.29
2026-02-13 16:11:12.817,105.000,0.031835,-0.016824,1.768243,1.210,-2.250,0.711,32.59
2026-02-13 16:11:12.917,105.100,0.033788,-0.018533,1.775323,1.461,-2.189,1.046,32.39
2026-02-13 16:11:13.017,105.200,0.032567,-0.018533,1.776299,1.156,-2.181,0.749,32.54
2026-02-13 16:11:13.117,105.300,0.026220,-0.022928,1.775079,1.026,-2.334,0.970,32.59
2026-02-13 16:11:13.217,105.400,0.034276,-0.016580,1.780938,1.003,-2.280,0.970,32.39
2026-02-13 16:11:13.317,105.500,0.035985,-0.017557,1.771417,1.042,-2.441,0.779,32.59
2026-02-13 16:11:13.418,105.600,0.033544,-0.017313,1.774590,1.202,-2.433,0.840,32.29
2026-02-13 16:11:13.517,105.700,0.034765,-0.018289,1.772637,1.187,-2.349,0.993,32.54
2026-02-13 16:11:13.617,105.800,0.036962,-0.018289,1.776299,1.011,-2.265,0.604,32.29
2026-02-13 16:11:13.717,105.900,0.032567,-0.015848,1.778985,1.362,-2.479,0.711,32.59
2026-02-13 16:11:13.818,106.000,0.033544,-0.019266,1.783868,1.324,-2.403,1.031,32.54
2026-02-13 16:11:13.918,106.100,0.037938,-0.018777,1.778008,1.149,-1.960,0.940,32.59
2026-02-13 16:11:14.018,106.200,0.035253,-0.019510,1.775323,1.049,-2.288,0.749,32.54
2026-02-13 16:11:14.118,106.300,0.033544,-0.018777,1.775811,1.110,-2.303,0.695,32.29
2026-02-13 16:11:14.217,106.400,0.034032,-0.018533,1.775567,0.988,-2.242,0.833,32.64
2026-02-13 16:11:14.317,106.500,0.032567,-0.016580,1.779962,1.263,-2.334,0.634,32.74
2026-02-13 16:11:14.417,106.600,0.035253,-0.019998,1.776544,0.874,-2.044,0.817,32.44
2026-02-13 16:11:14.518,106.700,0.030614,-0.019266,1.773614,1.240,-2.112,0.688,32.20
2026-02-13 16:11:14.618,106.800,0.031835,-0.019510,1.781426,1.095,-2.189,0.894,32.25
2026-02-13 16:11:14.718,106.900,0.033788,-0.018533,1.771417,1.141,-2.044,0.901,32.25
2026-02-13 16:11:14.817,107.000,0.034032,-0.016092,1.771417,1.332,-2.158,0.764,32.39
2026-02-13 16:11:14.918,107.100,0.036962,-0.019022,1.782647,1.019,-2.372,0.749,32.44
2026-02-13 16:11:15.018,107.200,0.032567,-0.017068,1.773370,1.355,-1.945,0.733,32.39
2026-02-13 16:11:15.117,107.300,0.033788,-0.015604,1.778497,1.316,-2.303,0.718,32.59
2026-02-13 16:11:15.217,107.400,0.032812,-0.020975,1.774102,0.919,-2.204,0.749,32.54
2026-02-13 16:11:15.317,107.500,0.032812,-0.016092,1.776788,1.034,-2.273,0.978,32.64
2026-02-13 16:11:15.417,107.600,0.031347,-0.019510,1.778008,1.057,-1.883,0.711,32.20
2026-02-13 16:11:15.517,107.700,0.034521,-0.017068,1.771905,1.156,-2.326,0.245,32.59
2026-02-13 16:11:15.617,107.800,0.035985,-0.013162,1.773614,1.255,-2.448,0.680,32.54
2026-02-13 16:11:15.717,107.900,0.032812,-0.019266,1.777032,1.110,-2.288,0.825,32.25
2026-02-13 16:11:15.817,108.000,0.034276,-0.020486,1.776788,0.919,-2.403,0.749,32.39
2026-02-13 16:11:15.917,108.100,0.035741,-0.018533,1.775323,1.103,-2.006,0.711,32.10
2026-02-13 16:11:16.017,108.200,0.036962,-0.017068,1.773858,1.026,-2.219,0.657,32.54
2026-02-13 16:11:16.117,108.300,0.031835,-0.014383,1.771172,1.126,-2.189,0.772,32.59
2026-02-13 16:11:16.217,108.400,0.036229,-0.015848,1.775079,1.294,-2.097,0.375,32.83
2026-02-13 16:11:16.318,108.500,0.030858,-0.015604,1.773858,1.355,-2.296,0.688,32.29
2026-02-13 16:11:16.417,108.600,0.030126,-0.016092,1.776055,1.187,-2.227,0.940,32.54
2026-02-13 16:11:16.517,108.700,0.031835,-0.015848,1.781671,1.324,-2.181,0.772,32.29
2026-02-13 16:11:16.617,108.800,0.032812,-0.017557,1.778497,1.133,-2.090,0.665,32.54
2026-02-13 16:11:16.717,108.900,0.034032,-0.021219,1.777276,1.133,-2.433,1.085,32.39
2026-02-13 16:11:16.817,109.000,0.038183,-0.016824,1.769708,1.156,-2.296,0.909,32.54
2026-02-13 16:11:16.917,109.100,0.035009,-0.021463,1.776788,1.057,-2.280,0.726,32.10
2026-02-13 16:11:17.017,109.200,0.030614,-0.017557,1.774102,1.232,-2.349,0.909,32.25
2026-02-13 16:11:17.117,109.300,0.033300,-0.018777,1.781426,1.194,-2.563,0.680,32.25
2026-02-13 16:11:17.217,109.400,0.037450,-0.016824,1.767999,1.171,-2.151,0.955,32.44
2026-02-13 16:11:17.317,109.500,0.035009,-0.017557,1.775567,1.217,-2.090,0.627,32.54
2026-02-13 16:11:17.417,109.600,0.029394,-0.019510,1.774346,1.034,-2.219,0.795,32.39
2026-02-13 16:11:17.517,109.700,0.033544,-0.017801,1.778253,1.133,-1.883,0.772,32.59
2026-02-13 16:11:17.617,109.800,0.036962,-0.018289,1.774346,1.133,-2.364,0.733,32.59
2026-02-13 16:11:17.717,109.900,0.032812,-0.017313,1.773858,1.049,-2.387,0.314,32.44
2026-02-13 16:11:17.818,110.000,0.035009,-0.020486,1.780206,0.965,-2.174,0.504,32.44
2026-02-13 16:11:17.917,110.100,0.036718,-0.018533,1.780450,1.324,-2.204,0.947,32.20
2026-02-13 16:11:18.017,110.200,0.032567,-0.015359,1.774835,1.286,-2.380,0.940,32.44
2026-02-13 16:11:18.117,110.300,0.034521,-0.017557,1.780694,1.171,-2.143,0.802,32.29
2026-02-13 16:11:18.217,110.400,0.035985,-0.017068,1.777520,0.881,-2.227,0.810,32.29
2026-02-13 16:11:18.317,110.500,0.032079,-0.012918,1.775323,1.347,-2.212,0.894,32.59
2026-02-13 16:11:18.417,110.600,0.035497,-0.016580,1.775079,0.988,-1.990,0.901,32.39
2026-02-13 16:11:18.517,110.700,0.033056,-0.021219,1.772881,1.576,-2.189,1.077,32.29
2026-02-13 16:11:18.617,110.800,0.034276,-0.015848,1.773858,1.065,-2.380,0.894,32.59
2026-02-13 16:11:18.717,110.900,0.034032,-0.018533,1.781426,1.225,-2.090,0.543,32.29
2026-02-13 16:11:18.818,111.000,0.033300,-0.016824,1.771905,1.362,-1.975,0.733,32.64
2026-02-13 16:11:18.918,111.100,0.037694,-0.016336,1.773370,1.263,-2.372,0.871,32.59
2026-02-13 16:11:19.018,111.200,0.032079,-0.019022,1.771172,0.981,-2.128,0.833,32.64
2026-02-13 16:11:19.118,111.300,0.034521,-0.016824,1.777276,1.103,-2.227,0.802,32.20
2026-02-13 16:11:19.217,111.400,0.029638,-0.017313,1.773858,1.095,-2.280,0.741,32.44
2026-02-13 16:11:19.317,111.500,0.034521,-0.017068,1.777276,1.026,-2.112,0.634,32.59
2026-02-13 16:11:19.417,111.600,0.036474,-0.015604,1.771661,1.065,-2.166,0.802,32.59
2026-02-13 16:11:19.517,111.700,0.035497,-0.015359,1.775567,1.156,-2.403,0.848,32.39
2026-02-13 16:11:19.617,111.800,0.033788,-0.018533,1.780450,1.255,-2.143,0.619,32.59
2026-02-13 16:11:19.717,111.900,0.032323,-0.017801,1.779962,0.996,-2.288,0.733,32.20
2026-02-13 16:11:19.818,112.000,0.030614,-0.015359,1.772393,1.263,-2.280,0.833,32.59
2026-02-13 16:11:19.918,112.100,0.029882,-0.015359,1.777276,1.072,-2.151,0.672,32.39
2026-02-13 16:11:20.017,112.200,0.032567,-0.018289,1.779473,1.278,-2.204,0.756,32.59
2026-02-13 16:11:20.117,112.300,0.035985,-0.015604,1.779473,0.866,-2.204,0.741,32.25
2026-02-13 16:11:20.217,112.400,0.032079,-0.015359,1.767999,1.294,-2.448,0.901,32.39
2026-02-13 16:11:20.317,112.500,0.032079,-0.019754,1.771905,1.240,-2.341,0.596,32.74
2026-02-13 16:11:20.417,112.600,0.034276,-0.019754,1.780938,0.935,-2.372,0.940,32.29
2026-02-13 16:11:20.517,112.700,0.031835,-0.013406,1.771905,1.294,-2.326,0.970,32.78
2026-02-13 16:11:20.617,112.800,0.035497,-0.021463,1.778253,1.179,-2.189,0.718,32.64
2026-02-13 16:11:20.717,112.900,0.033056,-0.015359,1.779229,1.072,-2.151,0.634,32.59
2026-02-13 16:11:20.817,113.000,0.035253,-0.017801,1.774590,0.996,-2.235,0.962,32.29
2026-02-13 16:11:20.917,113.100,0.034521,-0.015359,1.775567,0.973,-2.349,0.726,32.54
2026-02-13 16:11:21.017,113.200,0.033056,-0.018289,1.777764,1.324,-2.120,1.001,32.59
2026-02-13 16:11:21.117,113.300,0.030858,-0.017801,1.775567,1.202,-2.135,0.764,32.44
2026-02-13 16:11:21.217,113.400,0.033788,-0.019998,1.772393,1.057,-2.135,0.695,32.54
2026-02-13 16:11:21.317,113.500,0.032567,-0.018289,1.777764,1.332,-2.311,0.504,32.25
2026-02-13 16:11:21.417,113.600,0.035253,-0.014871,1.774346,1.118,-2.158,0.680,32.20
2026-02-13 16:11:21.517,113.700,0.034521,-0.018045,1.775323,1.240,-2.387,0.596,32.54
2026-02-13 16:11:21.617,113.800,0.033056,-0.020730,1.776544,1.316,-2.250,0.558,32.20
2026-02-13 16:11:21.717,113.900,0.032567,-0.018045,1.774346,1.187,-2.395,0.649,32.25
2026-02-13 16:11:21.817,114.000,0.034276,-0.018777,1.777276,0.996,-2.265,0.741,32.54
2026-02-13 16:11:21.917,114.100,0.033788,-0.013162,1.774835,1.202,-2.158,0.970,32.39
2026-02-13 16:11:22.017,114.200,0.035009,-0.014139,1.782159,0.965,-2.265,0.978,32.25
2026-02-13 16:11:22.117,114.300,0.033788,-0.017068,1.778253,1.103,-2.158,0.917,32.59
2026-02-13 16:11:22.217,114.400,0.032812,-0.021463,1.776788,1.103,-2.425,0.634,32.59
2026-02-13 16:11:22.317,114.500,0.035741,-0.016336,1.775079,1.217,-2.036,0.802,32.39
2026-02-13 16:11:22.417,114.600,0.033056,-0.015359,1.775811,0.889,-2.540,0.772,32.25
2026-02-13 16:11:22.517,114.700,0.033544,-0.013895,1.774102,1.210,-2.303,1.016,32.64
2026-02-13 16:11:22.618,114.800,0.030614,-0.020242,1.776788,1.126,-2.265,0.703,32.59
2026-02-13 16:11:22.718,114.900,0.037694,-0.016580,1.768487,1.210,-2.242,1.054,32.59
2026-02-13 16:11:22.818,115.000,0.037450,-0.020486,1.774102,1.431,-2.196,0.527,32.29
2026-02-13 16:11:22.918,115.100,0.031591,-0.011941,1.777764,1.087,-2.341,0.657,32.29
2026-02-13 16:11:23.017,115.200,0.033056,-0.015848,1.778497,1.133,-2.525,0.703,32.25
2026-02-13 16:11:23.117,115.300,0.034276,-0.016092,1.773126,1.286,-2.525,0.665,32.44
2026-02-13 16:11:23.218,115.400,0.032079,-0.019998,1.778253,1.019,-2.135,0.764,32.54
2026-02-13 16:11:23.317,115.500,0.035985,-0.018777,1.778741,1.095,-2.128,1.100,32.39
2026-02-13 16:11:23.417,115.600,0.035985,-0.016580,1.783868,1.255,-2.563,0.848,32.59
2026-02-13 16:11:23.517,115.700,0.033788,-0.018533,1.774102,0.950,-2.067,0.711,32.59
2026-02-13 16:11:23.617,115.800,0.032079,-0.018045,1.776788,1.179,-2.204,0.711,32.39
2026-02-13 16:11:23.717,115.900,0.034521,-0.024393,1.779473,0.904,-2.135,0.962,32.59
2026-02-13 16:11:23.817,116.000,0.033300,-0.019754,1.778985,1.232,-2.296,0.535,32.59
2026-02-13 16:11:23.918,116.100,0.031103,-0.016824,1.778741,1.263,-2.151,0.627,32.64
2026-02-13 16:11:24.018,116.200,0.033056,-0.016092,1.778008,1.286,-2.013,1.077,32.54
2026-02-13 16:11:24.118,116.300,0.034032,-0.017068,1.774835,1.439,-2.181,0.566,32.54
2026-02-13 16:11:24.217,116.400,0.034032,-0.017313,1.776544,1.149,-2.036,0.726,32.54
2026-02-13 16:11:24.317,116.500,0.029638,-0.017557,1.780694,1.042,-2.166,0.672,32.44
2026-02-13 16:11:24.418,116.600,0.034521,-0.019022,1.775811,1.271,-2.250,0.833,32.20
2026-02-13 16:11:24.518,116.700,0.030858,-0.019266,1.774590,1.416,-2.265,1.169,32.29
2026-02-13 16:11:24.617,116.800,0.035009,-0.019022,1.778008,1.042,-2.288,0.802,32.64
2026-02-13 16:11:24.717,116.900,0.030370,-0.019510,1.777276,1.003,-2.082,0.726,32.29
2026-02-13 16:11:24.817,117.000,0.037450,-0.017068,1.778985,1.294,-2.021,0.901,32.54
2026-02-13 16:11:24.917,117.100,0.032812,-0.020975,1.777764,1.179,-2.372,0.894,32.44
2026-02-13 16:11:25.018,117.200,0.033544,-0.016580,1.775567,1.225,-2.158,0.657,32.59
2026-02-13 16:11:25.118,117.300,0.033544,-0.018777,1.775079,1.210,-2.349,0.711,32.59
2026-02-13 16:11:25.218,117.400,0.035497,-0.015604,1.772637,1.210,-2.380,0.993,32.39
2026-02-13 16:11:25.318,117.500,0.030370,-0.014139,1.770440,1.530,-2.357,0.688,32.20
2026-02-13 16:11:25.417,117.600,0.033788,-0.016580,1.774102,1.149,-2.120,0.909,32.59
2026-02-13 16:11:25.517,117.700,0.033056,-0.019022,1.778253,1.240,-2.303,0.672,32.25
2026-02-13 16:11:25.617,117.800,0.034521,-0.018289,1.774835,0.988,-2.196,0.787,32.20
2026-02-13 16:11:25.718,117.900,0.034521,-0.015115,1.777764,1.118,-2.395,0.886,32.25
2026-02-13 16:11:25.817,118.000,0.033544,-0.018777,1.772881,1.080,-2.319,0.443,32.29
2026-02-13 16:11:25.917,118.100,0.030858,-0.017313,1.778741,1.217,-2.296,0.825,32.59
2026-02-13 16:11:26.017,118.200,0.035497,-0.019754,1.777520,1.095,-2.273,1.001,32.64
2026-02-13 16:11:26.117,118.300,0.034032,-0.016092,1.782891,1.034,-2.128,0.932,32.25
2026-02-13 16:11:26.218,118.400,0.035497,-0.016580,1.781426,1.149,-2.250,0.962,32.29
2026-02-13 16:11:26.318,118.500,0.035985,-0.019754,1.779229,1.049,-2.395,0.848,32.59
2026-02-13 16:11:26.417,118.600,0.033544,-0.017068,1.771905,0.950,-2.166,0.772,32.25
2026-02-13 16:11:26.517,118.700,0.032567,-0.017557,1.780450,1.072,-2.532,1.069,32.54
2026-02-13 16:11:26.617,118.800,0.032567,-0.011697,1.781915,1.240,-2.166,0.955,32.59
2026-02-13 16:11:26.717,118.900,0.038427,-0.019266,1.779962,1.164,-2.303,1.107,32.59
2026-02-13 16:11:26.817,119.000,0.034765,-0.017313,1.781182,1.400,-2.212,0.680,32.39
2026-02-13 16:11:26.917,119.100,0.030858,-0.014871,1.774102,1.194,-2.273,0.688,32.54
2026-02-13 16:11:27.017,119.200,0.038183,-0.014871,1.772881,1.370,-2.120,0.848,32.44
2026-02-13 16:11:27.117,119.300,0.034765,-0.017313,1.778008,1.080,-2.357,0.573,32.54
2026-02-13 16:11:27.217,119.400,0.032812,-0.015604,1.775079,1.194,-2.181,0.749,32.59
2026-02-13 16:11:27.317,119.500,0.032323,-0.021707,1.774835,1.087,-2.128,0.756,32.29
2026-02-13 16:11:27.417,119.600,0.033544,-0.016092,1.777032,1.232,-2.242,0.611,32.39
2026-02-13 16:11:27.517,119.700,0.034521,-0.017068,1.781426,0.881,-2.357,0.810,32.64
2026-02-13 16:11:27.617,119.800,0.032079,-0.015359,1.777276,1.133,-2.250,0.825,32.59
2026-02-13 16:11:27.717,119.900,0.031103,-0.018533,1.776055,1.240,-2.326,0.543,32.44
