timestamp,time_seconds,accel_x_g,accel_y_g,accel_z_g,gyro_x_dps,gyro_y_dps,gyro_z_dps,temp_c
2026-02-12 18:11:48.135,0.000,0.321045,0.508301,-0.775391,1.565,-2.718,0.252,31.66
2026-02-12 18:11:48.235,0.100,0.316895,0.508545,-0.783691,1.687,-2.870,0.344,31.56
2026-02-12 18:11:48.335,0.200,0.323242,0.509277,-0.781006,1.679,-3.008,0.504,31.46
2026-02-12 18:11:48.435,0.300,0.323486,0.509521,-0.777832,1.916,-2.794,0.046,31.71
2026-02-12 18:11:48.535,0.400,0.324463,0.508545,-0.781250,1.695,-3.031,0.374,31.51
2026-02-12 18:11:48.635,0.500,0.322266,0.508057,-0.780273,1.550,-2.687,0.290,31.66
2026-02-12 18:11:48.735,0.600,0.326660,0.507568,-0.782471,1.634,-2.947,-0.084,31.71
2026-02-12 18:11:48.835,0.700,0.322021,0.505859,-0.780273,1.511,-2.962,0.313,31.71
2026-02-12 18:11:48.935,0.800,0.322021,0.505127,-0.775879,1.710,-2.756,0.313,31.46
2026-02-12 18:11:49.035,0.900,0.320801,0.508057,-0.781982,1.802,-2.985,0.214,31.66
2026-02-12 18:11:49.135,1.000,0.323486,0.508545,-0.778076,1.656,-2.878,0.313,31.56
2026-02-12 18:11:49.235,1.100,0.326172,0.507812,-0.777100,1.702,-2.733,0.023,31.71
2026-02-12 18:11:49.335,1.200,0.325195,0.507324,-0.776367,1.794,-2.718,-0.153,31.22
2026-02-12 18:11:49.435,1.300,0.323242,0.510498,-0.779053,1.634,-2.931,0.504,31.51
2026-02-12 18:11:49.535,1.400,0.320801,0.507324,-0.776367,1.756,-2.725,0.389,31.51
2026-02-12 18:11:49.635,1.500,0.323730,0.507080,-0.783203,1.580,-2.969,0.191,31.66
2026-02-12 18:11:49.735,1.600,0.321289,0.502930,-0.780518,1.718,-2.969,0.176,31.36
2026-02-12 18:11:49.835,1.700,0.320801,0.507324,-0.768066,1.733,-3.031,0.328,31.56
2026-02-12 18:11:49.935,1.800,0.321777,0.507080,-0.777344,1.855,-2.771,0.374,31.66
2026-02-12 18:11:50.035,1.900,0.322510,0.507812,-0.781982,1.588,-2.603,0.344,31.56
2026-02-12 18:11:50.135,2.000,0.322754,0.508057,-0.780029,1.672,-2.611,0.328,31.66
2026-02-12 18:11:50.235,2.100,0.321045,0.507080,-0.782959,1.794,-2.756,0.359,31.71
2026-02-12 18:11:50.335,2.200,0.321533,0.506836,-0.782471,1.809,-2.580,0.130,31.66
2026-02-12 18:11:50.435,2.300,0.320801,0.506348,-0.773193,1.710,-2.962,0.321,31.66
2026-02-12 18:11:50.535,2.400,0.321777,0.508301,-0.781006,1.412,-2.863,0.145,31.36
2026-02-12 18:11:50.635,2.500,0.318359,0.506348,-0.779053,1.718,-2.672,0.435,31.51
2026-02-12 18:11:50.735,2.600,0.324219,0.510742,-0.775635,1.740,-3.214,0.267,31.51
2026-02-12 18:11:50.835,2.700,0.321289,0.507080,-0.783691,1.725,-2.840,0.344,31.51
2026-02-12 18:11:50.935,2.800,0.320557,0.506348,-0.777100,1.802,-2.618,0.443,31.46
2026-02-12 18:11:51.035,2.900,0.322021,0.507080,-0.775879,1.748,-3.000,0.076,31.51
2026-02-12 18:11:51.135,3.000,0.322510,0.505371,-0.778809,1.504,-2.542,0.412,31.56
2026-02-12 18:11:51.235,3.100,0.324463,0.506836,-0.775635,1.740,-2.901,0.359,31.56
2026-02-12 18:11:51.335,3.200,0.322510,0.507324,-0.778320,1.817,-2.863,0.221,31.32
2026-02-12 18:11:51.435,3.300,0.321777,0.507812,-0.779297,1.779,-2.901,0.366,31.71
2026-02-12 18:11:51.535,3.400,0.324219,0.510010,-0.781494,1.733,-2.939,0.290,31.56
2026-02-12 18:11:51.635,3.500,0.321045,0.507568,-0.780029,1.611,-3.069,0.183,31.36
2026-02-12 18:11:51.735,3.600,0.323486,0.505371,-0.779053,1.664,-2.832,0.450,31.66
2026-02-12 18:11:51.835,3.700,0.323975,0.504883,-0.779297,1.626,-2.672,0.321,31.56
2026-02-12 18:11:51.935,3.800,0.324463,0.510742,-0.781250,1.924,-2.794,0.611,31.71
2026-02-12 18:11:52.035,3.900,0.323242,0.507080,-0.776855,1.618,-2.985,0.206,31.51
2026-02-12 18:11:52.135,4.000,0.325684,0.507812,-0.783691,1.710,-2.847,0.046,31.51
2026-02-12 18:11:52.235,4.100,0.322021,0.506592,-0.777100,1.573,-2.977,0.565,31.76
2026-02-12 18:11:52.335,4.200,0.324707,0.507324,-0.775635,1.618,-2.878,0.221,31.66
2026-02-12 18:11:52.435,4.300,0.321533,0.505371,-0.783203,1.695,-2.695,0.198,31.51
2026-02-12 18:11:52.535,4.400,0.321777,0.508057,-0.781494,1.473,-2.908,0.344,31.36
2026-02-12 18:11:52.635,4.500,0.318848,0.504639,-0.774658,1.725,-2.771,0.313,31.56
2026-02-12 18:11:52.735,4.600,0.318115,0.510498,-0.776123,1.473,-2.580,0.046,31.56
2026-02-12 18:11:52.835,4.700,0.322998,0.505859,-0.777100,1.687,-2.679,0.267,31.36
2026-02-12 18:11:52.935,4.800,0.324219,0.504639,-0.780029,1.695,-2.840,0.321,31.51
2026-02-12 18:11:53.035,4.900,0.321289,0.507080,-0.781494,1.626,-2.771,0.191,31.56
2026-02-12 18:11:53.135,5.000,0.323975,0.509521,-0.770752,1.649,-2.748,0.336,31.51
2026-02-12 18:11:53.235,5.100,0.321777,0.506348,-0.782227,1.794,-2.924,0.206,31.76
2026-02-12 18:11:53.335,5.200,0.325928,0.505859,-0.778809,1.679,-2.878,0.038,31.66
2026-02-12 18:11:53.435,5.300,0.320801,0.507324,-0.780029,1.710,-2.893,0.206,31.46
2026-02-12 18:11:53.535,5.400,0.320068,0.506836,-0.774170,1.695,-2.832,0.282,31.66
2026-02-12 18:11:53.635,5.500,0.320801,0.505371,-0.778564,1.626,-2.580,0.176,31.56
2026-02-12 18:11:53.735,5.600,0.321533,0.505127,-0.782715,1.618,-2.908,0.153,31.71
2026-02-12 18:11:53.835,5.700,0.325928,0.507324,-0.778076,2.000,-3.000,0.298,31.76
2026-02-12 18:11:53.935,5.800,0.321533,0.508057,-0.778320,1.740,-2.771,0.305,31.66
2026-02-12 18:11:54.035,5.900,0.324707,0.508545,-0.772705,1.573,-2.924,0.504,31.51
2026-02-12 18:11:54.135,6.000,0.321777,0.504639,-0.784180,1.840,-3.015,0.260,31.66
2026-02-12 18:11:54.235,6.100,0.319336,0.505859,-0.777832,1.725,-2.992,0.443,31.56
2026-02-12 18:11:54.335,6.200,0.320557,0.505371,-0.781006,1.672,-2.679,0.466,31.36
2026-02-12 18:11:54.435,6.300,0.322266,0.507324,-0.781738,1.473,-2.901,0.351,31.56
2026-02-12 18:11:54.535,6.400,0.326416,0.509277,-0.775635,1.847,-2.641,0.397,31.56
2026-02-12 18:11:54.635,6.500,0.321045,0.504639,-0.776123,1.710,-2.779,0.359,31.76
2026-02-12 18:11:54.735,6.600,0.324219,0.505615,-0.780029,1.634,-2.840,0.366,31.36
2026-02-12 18:11:54.835,6.700,0.321777,0.504883,-0.777100,1.664,-2.786,0.290,31.56
2026-02-12 18:11:54.935,6.800,0.325195,0.510986,-0.779297,1.481,-2.534,0.389,31.46
2026-02-12 18:11:55.035,6.900,0.321289,0.507568,-0.782959,1.656,-2.664,0.389,31.56
2026-02-12 18:11:55.135,7.000,0.322754,0.507080,-0.778564,1.634,-2.824,0.298,31.56
2026-02-12 18:11:55.235,7.100,0.324463,0.505859,-0.775879,1.634,-2.832,0.458,31.46
2026-02-12 18:11:55.335,7.200,0.323730,0.507812,-0.770508,1.603,-2.901,0.313,31.71
2026-02-12 18:11:55.435,7.300,0.322510,0.500732,-0.776123,1.595,-2.573,0.069,31.46
2026-02-12 18:11:55.535,7.400,0.322266,0.508057,-0.781250,1.519,-2.763,0.344,31.56
2026-02-12 18:11:55.635,7.500,0.323486,0.507080,-0.784668,1.641,-2.802,0.061,31.71
2026-02-12 18:11:55.735,7.600,0.323975,0.507324,-0.778809,1.817,-3.038,0.473,31.71
2026-02-12 18:11:55.835,7.700,0.326904,0.507324,-0.776123,1.641,-2.756,0.565,31.36
2026-02-12 18:11:55.935,7.800,0.325684,0.507812,-0.779297,1.611,-2.855,0.450,31.71
2026-02-12 18:11:56.035,7.900,0.320557,0.506592,-0.780518,1.656,-2.542,0.366,31.36
2026-02-12 18:11:56.135,8.000,0.324707,0.507324,-0.775879,1.718,-2.725,0.305,31.51
2026-02-12 18:11:56.235,8.100,0.321289,0.508545,-0.777832,1.893,-2.969,0.382,31.51
2026-02-12 18:11:56.335,8.200,0.323242,0.506836,-0.774658,1.542,-2.870,0.466,31.66
2026-02-12 18:11:56.435,8.300,0.320068,0.507812,-0.780518,1.702,-2.840,0.366,31.71
2026-02-12 18:11:56.535,8.400,0.325439,0.503906,-0.778320,1.794,-3.015,0.130,31.56
2026-02-12 18:11:56.635,8.500,0.325439,0.508545,-0.778809,1.802,-2.954,-0.122,31.66
2026-02-12 18:11:56.735,8.600,0.324707,0.502686,-0.773682,1.756,-2.962,0.351,31.76
2026-02-12 18:11:56.835,8.700,0.321533,0.505615,-0.777588,1.916,-2.763,0.214,31.51
2026-02-12 18:11:56.935,8.800,0.319824,0.507568,-0.780273,1.641,-2.824,0.351,31.46
2026-02-12 18:11:57.035,8.900,0.323730,0.509277,-0.777588,1.656,-2.832,0.221,31.71
2026-02-12 18:11:57.135,9.000,0.322266,0.502197,-0.780518,1.779,-2.840,0.107,31.71
2026-02-12 18:11:57.235,9.100,0.324463,0.506592,-0.778320,1.527,-2.481,0.031,31.66
2026-02-12 18:11:57.335,9.200,0.321289,0.504639,-0.782959,1.756,-2.824,0.191,31.36
2026-02-12 18:11:57.435,9.300,0.324219,0.504883,-0.772705,1.542,-2.740,-0.053,31.66
2026-02-12 18:11:57.535,9.400,0.322754,0.506104,-0.777832,1.863,-2.878,0.382,31.51
2026-02-12 18:11:57.635,9.500,0.322998,0.506592,-0.776123,1.634,-2.687,0.282,31.56
2026-02-12 18:11:57.735,9.600,0.322998,0.505859,-0.775146,1.756,-2.595,0.275,31.66
2026-02-12 18:11:57.835,9.700,0.322021,0.510986,-0.780029,1.924,-2.634,0.206,31.66
2026-02-12 18:11:57.935,9.800,0.320068,0.507080,-0.775879,1.740,-2.725,0.244,31.76
2026-02-12 18:11:58.035,9.900,0.321045,0.508301,-0.772949,1.824,-2.855,0.473,31.46
2026-02-12 18:11:58.135,10.000,0.324463,0.508057,-0.778320,1.718,-2.878,0.053,31.76
2026-02-12 18:11:58.235,10.100,0.321533,0.506592,-0.777832,1.832,-2.824,0.191,31.71
2026-02-12 18:11:58.335,10.200,0.325195,0.507812,-0.778320,1.664,-2.977,0.389,31.51
2026-02-12 18:11:58.435,10.300,0.322754,0.505859,-0.781494,1.756,-2.863,0.344,31.66
2026-02-12 18:11:58.535,10.400,0.322998,0.507080,-0.781494,1.756,-2.901,0.244,31.66
2026-02-12 18:11:58.635,10.500,0.320801,0.509766,-0.783447,1.595,-3.008,-0.015,31.32
2026-02-12 18:11:58.735,10.600,0.319580,0.508057,-0.777100,1.603,-3.092,0.389,31.66
2026-02-12 18:11:58.835,10.700,0.322021,0.508789,-0.785400,1.817,-2.733,0.198,31.71
2026-02-12 18:11:58.935,10.800,0.322754,0.500977,-0.781982,1.763,-2.985,0.450,31.51
2026-02-12 18:11:59.035,10.900,0.318359,0.508057,-0.780518,1.748,-3.115,0.145,31.71
2026-02-12 18:11:59.135,11.000,0.323242,0.508057,-0.781006,1.756,-2.412,0.443,31.66
2026-02-12 18:11:59.235,11.100,0.325439,0.507080,-0.776367,1.580,-2.840,0.176,31.56
2026-02-12 18:11:59.335,11.200,0.321777,0.504639,-0.782471,1.573,-2.802,-0.137,31.71
2026-02-12 18:11:59.435,11.300,0.322998,0.507812,-0.778564,1.756,-2.725,0.237,31.66
2026-02-12 18:11:59.535,11.400,0.324219,0.506592,-0.779053,1.664,-2.626,0.290,31.51
2026-02-12 18:11:59.635,11.500,0.321289,0.510742,-0.785889,1.412,-2.954,0.000,31.56
2026-02-12 18:11:59.735,11.600,0.322510,0.507080,-0.771240,1.885,-3.023,0.489,31.66
2026-02-12 18:11:59.835,11.700,0.324707,0.503662,-0.778320,1.725,-2.962,0.153,31.51
2026-02-12 18:11:59.935,11.800,0.323242,0.503662,-0.782471,1.870,-2.992,0.198,31.71
2026-02-12 18:12:00.035,11.900,0.321777,0.504395,-0.778320,1.702,-2.656,0.214,31.51
2026-02-12 18:12:00.135,12.000,0.319824,0.506836,-0.782715,1.534,-2.481,0.344,31.56
2026-02-12 18:12:00.235,12.100,0.318604,0.506592,-0.779785,1.565,-2.702,0.183,31.66
2026-02-12 18:12:00.335,12.200,0.322266,0.507080,-0.780518,1.824,-2.794,-0.015,31.71
2026-02-12 18:12:00.435,12.300,0.319580,0.508789,-0.775635,1.626,-2.687,0.168,31.46
2026-02-12 18:12:00.535,12.400,0.321289,0.506348,-0.782959,1.626,-2.595,0.382,31.56
2026-02-12 18:12:00.635,12.500,0.322510,0.509033,-0.772705,1.725,-2.939,0.344,31.51
2026-02-12 18:12:00.735,12.600,0.324951,0.505859,-0.781250,1.924,-2.985,0.366,31.66
2026-02-12 18:12:00.835,12.700,0.320801,0.504150,-0.781738,1.672,-2.756,0.122,31.46
2026-02-12 18:12:00.935,12.800,0.321777,0.510010,-0.773438,1.466,-2.847,0.275,31.66
2026-02-12 18:12:01.035,12.900,0.319336,0.506348,-0.779541,1.794,-2.809,0.603,31.46
2026-02-12 18:12:01.135,13.000,0.320312,0.506836,-0.781250,1.550,-3.046,0.168,31.51
2026-02-12 18:12:01.235,13.100,0.325439,0.507568,-0.772461,1.809,-2.908,0.260,31.56
2026-02-12 18:12:01.335,13.200,0.320801,0.508789,-0.775879,1.901,-2.901,0.221,31.66
2026-02-12 18:12:01.435,13.300,0.325195,0.507568,-0.781250,1.527,-2.824,0.168,31.36
2026-02-12 18:12:01.535,13.400,0.324219,0.510254,-0.776855,1.534,-2.939,0.153,31.66
2026-02-12 18:12:01.635,13.500,0.322266,0.503662,-0.780273,1.832,-2.870,0.084,31.56
2026-02-12 18:12:01.735,13.600,0.324463,0.504883,-0.773926,1.664,-2.870,0.229,31.71
2026-02-12 18:12:01.835,13.700,0.322754,0.507568,-0.782471,1.649,-2.786,0.092,31.76
2026-02-12 18:12:01.935,13.800,0.319824,0.504883,-0.774414,1.763,-2.725,0.183,31.56
2026-02-12 18:12:02.035,13.900,0.324219,0.507812,-0.778564,1.634,-2.603,0.260,31.66
2026-02-12 18:12:02.135,14.000,0.323486,0.503174,-0.783691,1.710,-2.985,0.351,31.66
2026-02-12 18:12:02.235,14.100,0.326904,0.505859,-0.772461,1.718,-2.863,0.221,31.56
2026-02-12 18:12:02.335,14.200,0.322266,0.507568,-0.775879,1.748,-2.908,0.664,31.71
2026-02-12 18:12:02.435,14.300,0.319824,0.506348,-0.781494,1.718,-3.000,0.183,31.46
2026-02-12 18:12:02.535,14.400,0.322998,0.505615,-0.779297,1.573,-2.893,0.137,31.56
2026-02-12 18:12:02.635,14.500,0.323242,0.503906,-0.780029,1.939,-3.000,0.305,31.66
2026-02-12 18:12:02.735,14.600,0.324707,0.508057,-0.775635,1.702,-3.000,0.336,31.51
2026-02-12 18:12:02.835,14.700,0.322266,0.510986,-0.778076,1.672,-3.038,0.153,31.51
2026-02-12 18:12:02.935,14.800,0.326904,0.508057,-0.772705,1.870,-3.053,0.229,31.51
2026-02-12 18:12:03.035,14.900,0.323242,0.506836,-0.778320,1.588,-2.924,0.229,31.66
2026-02-12 18:12:03.135,15.000,0.318359,0.508301,-0.780029,1.855,-2.824,0.298,31.66
2026-02-12 18:12:03.235,15.100,0.322266,0.508301,-0.778809,1.641,-2.779,0.618,31.32
2026-02-12 18:12:03.335,15.200,0.323242,0.509277,-0.774902,1.817,-3.046,0.206,31.66
2026-02-12 18:12:03.435,15.300,0.322754,0.507568,-0.774658,1.626,-2.992,0.267,31.36
2026-02-12 18:12:03.535,15.400,0.324219,0.505859,-0.782227,1.740,-2.695,0.031,31.51
2026-02-12 18:12:03.635,15.500,0.320801,0.505127,-0.780029,1.672,-2.893,0.168,31.36
2026-02-12 18:12:03.737,15.600,0.323486,0.505127,-0.782471,1.863,-2.580,0.076,31.56
2026-02-12 18:12:03.835,15.700,0.321533,0.509521,-0.778320,1.702,-3.099,0.481,31.71
2026-02-12 18:12:03.935,15.800,0.324707,0.503418,-0.784424,1.740,-2.748,0.527,31.76
2026-02-12 18:12:04.035,15.900,0.327637,0.503174,-0.777832,1.695,-2.802,-0.038,31.56
2026-02-12 18:12:04.135,16.000,0.323975,0.506104,-0.770752,1.718,-2.824,-0.053,31.66
2026-02-12 18:12:04.235,16.100,0.322021,0.504395,-0.775635,1.626,-2.626,0.481,31.51
2026-02-12 18:12:04.335,16.200,0.322510,0.505859,-0.781250,1.557,-2.878,0.122,31.36
2026-02-12 18:12:04.436,16.302,0.319580,0.503418,-0.774658,1.695,-2.763,0.313,31.76
2026-02-12 18:12:04.535,16.400,0.322998,0.508057,-0.776367,1.771,-2.725,0.176,31.46
2026-02-12 18:12:04.635,16.500,0.325439,0.505859,-0.778564,1.550,-2.718,0.221,31.36
2026-02-12 18:12:04.735,16.600,0.327148,0.509277,-0.786377,1.817,-2.748,0.122,31.51
2026-02-12 18:12:04.835,16.700,0.320312,0.503906,-0.781982,1.878,-2.916,-0.046,31.56
2026-02-12 18:12:04.935,16.800,0.327148,0.508057,-0.777344,1.595,-2.962,0.725,31.76
2026-02-12 18:12:05.035,16.900,0.323242,0.511963,-0.778809,1.725,-2.847,0.305,31.66
2026-02-12 18:12:05.135,17.000,0.324219,0.503174,-0.780029,1.519,-2.679,0.420,31.66
2026-02-12 18:12:05.235,17.100,0.322754,0.508057,-0.778076,1.695,-2.824,0.420,31.66
2026-02-12 18:12:05.335,17.200,0.322510,0.506836,-0.775879,1.550,-2.595,0.252,31.90
2026-02-12 18:12:05.435,17.300,0.325439,0.506104,-0.778564,1.489,-2.824,0.275,31.51
2026-02-12 18:12:05.535,17.400,0.323242,0.510010,-0.778076,1.748,-2.924,0.374,31.66
2026-02-12 18:12:05.635,17.500,0.322266,0.503662,-0.780273,1.534,-2.603,0.198,31.51
2026-02-12 18:12:05.735,17.600,0.324707,0.506592,-0.775635,1.740,-2.779,0.137,31.76
2026-02-12 18:12:05.835,17.700,0.323975,0.505371,-0.785156,1.626,-2.855,0.183,31.51
2026-02-12 18:12:05.935,17.800,0.325928,0.510010,-0.776367,1.916,-2.527,0.427,31.66
2026-02-12 18:12:06.035,17.900,0.318848,0.510498,-0.771973,1.763,-2.527,0.344,31.51
2026-02-12 18:12:06.135,18.000,0.319336,0.503662,-0.782227,1.802,-2.802,0.198,31.36
2026-02-12 18:12:06.235,18.100,0.321533,0.505127,-0.778564,1.832,-2.992,0.137,31.71
2026-02-12 18:12:06.335,18.200,0.322510,0.508301,-0.779297,1.824,-2.977,0.336,31.22
2026-02-12 18:12:06.435,18.300,0.325195,0.508301,-0.777344,1.786,-2.649,0.107,31.36
2026-02-12 18:12:06.535,18.400,0.320801,0.509521,-0.784912,1.679,-2.809,0.496,31.66
2026-02-12 18:12:06.635,18.500,0.325684,0.509521,-0.774658,1.817,-2.992,0.099,31.56
2026-02-12 18:12:06.735,18.600,0.322266,0.508789,-0.781494,1.771,-2.794,0.389,31.76
2026-02-12 18:12:06.835,18.700,0.324463,0.504395,-0.780029,1.687,-2.817,0.359,31.51
2026-02-12 18:12:06.935,18.800,0.322754,0.509033,-0.778320,1.817,-2.847,0.229,31.56
2026-02-12 18:12:07.035,18.900,0.323975,0.510010,-0.779541,1.771,-2.748,0.229,31.46
2026-02-12 18:12:07.135,19.000,0.322754,0.507812,-0.774170,1.802,-2.893,0.389,31.66
2026-02-12 18:12:07.235,19.100,0.322510,0.508789,-0.778320,1.802,-2.718,0.252,31.71
2026-02-12 18:12:07.335,19.200,0.322998,0.507080,-0.771973,1.786,-2.809,0.260,31.66
2026-02-12 18:12:07.435,19.300,0.320068,0.502197,-0.776855,1.511,-2.702,0.267,31.46
2026-02-12 18:12:07.535,19.400,0.324707,0.508545,-0.775879,1.725,-2.939,0.046,31.66
2026-02-12 18:12:07.635,19.500,0.324951,0.505859,-0.781250,1.649,-2.695,0.321,31.36
2026-02-12 18:12:07.735,19.600,0.323486,0.507324,-0.779053,1.924,-2.924,0.069,31.66
2026-02-12 18:12:07.835,19.700,0.322021,0.507568,-0.774902,1.550,-2.901,0.328,31.66
2026-02-12 18:12:07.935,19.800,0.322754,0.510010,-0.781250,1.916,-2.725,0.321,31.46
2026-02-12 18:12:08.035,19.900,0.323730,0.506836,-0.777832,1.580,-2.847,0.282,31.71
2026-02-12 18:12:08.138,20.004,0.323486,0.508057,-0.777832,1.580,-2.878,-0.015,31.66
2026-02-12 18:12:08.235,20.100,0.328125,0.508789,-0.781006,1.641,-2.618,0.137,31.51
2026-02-12 18:12:08.335,20.200,0.320801,0.506348,-0.779785,1.695,-2.725,0.130,31.51
2026-02-12 18:12:08.435,20.300,0.319336,0.508301,-0.772461,2.031,-2.893,0.214,31.76
2026-02-12 18:12:08.535,20.400,0.322754,0.506836,-0.778809,1.687,-2.725,0.412,31.51
2026-02-12 18:12:08.635,20.500,0.325439,0.509033,-0.777344,1.466,-2.733,0.366,31.32
2026-02-12 18:12:08.735,20.600,0.321533,0.508545,-0.788574,1.611,-2.756,0.374,31.46
2026-02-12 18:12:08.835,20.700,0.322021,0.507080,-0.774170,1.786,-2.710,0.389,31.17
2026-02-12 18:12:08.935,20.800,0.324219,0.507812,-0.777100,1.618,-2.832,0.221,31.66
2026-02-12 18:12:09.035,20.900,0.326172,0.509277,-0.779541,1.771,-2.786,0.534,31.36
2026-02-12 18:12:09.135,21.000,0.322021,0.507812,-0.784180,1.702,-2.695,0.176,31.51
2026-02-12 18:12:09.235,21.100,0.319580,0.504639,-0.777588,1.534,-2.634,0.153,31.66
2026-02-12 18:12:09.335,21.200,0.323242,0.510498,-0.776611,1.740,-2.656,0.282,31.32
2026-02-12 18:12:09.435,21.300,0.327637,0.508057,-0.777100,1.641,-2.756,0.275,31.66
2026-02-12 18:12:09.535,21.400,0.320312,0.507080,-0.773438,1.763,-2.847,-0.069,31.71
2026-02-12 18:12:09.635,21.500,0.320068,0.508545,-0.776855,1.511,-2.870,0.198,31.66
2026-02-12 18:12:09.735,21.600,0.325928,0.507324,-0.781738,1.786,-2.672,0.481,31.51
2026-02-12 18:12:09.835,21.700,0.324463,0.504150,-0.776611,1.542,-2.641,0.313,31.51
2026-02-12 18:12:09.935,21.800,0.323975,0.508545,-0.777588,1.649,-2.664,0.160,31.56
2026-02-12 18:12:10.035,21.900,0.320068,0.506592,-0.780762,1.969,-2.885,0.267,31.51
2026-02-12 18:12:10.135,22.000,0.322754,0.508545,-0.779785,1.603,-2.840,0.550,31.66
2026-02-12 18:12:10.235,22.100,0.325195,0.505371,-0.777588,1.740,-2.824,0.389,31.66
2026-02-12 18:12:10.335,22.200,0.327148,0.507812,-0.780518,1.603,-2.626,0.321,31.51
2026-02-12 18:12:10.435,22.300,0.323730,0.508789,-0.783447,1.695,-2.855,0.603,31.32
2026-02-12 18:12:10.535,22.400,0.324463,0.511475,-0.778809,1.542,-2.901,0.229,31.76
2026-02-12 18:12:10.635,22.500,0.323975,0.507324,-0.777832,1.794,-2.847,0.229,31.76
2026-02-12 18:12:10.735,22.600,0.322510,0.507568,-0.777832,1.771,-2.840,0.130,31.56
2026-02-12 18:12:10.835,22.700,0.319336,0.509033,-0.777832,1.962,-2.458,0.351,31.71
2026-02-12 18:12:10.935,22.800,0.325195,0.505859,-0.774170,1.725,-2.863,0.260,31.56
2026-02-12 18:12:11.035,22.900,0.323975,0.507812,-0.779785,1.695,-2.870,0.237,31.36
2026-02-12 18:12:11.135,23.000,0.326904,0.510498,-0.778076,1.824,-2.664,0.573,31.51
2026-02-12 18:12:11.235,23.100,0.325195,0.504150,-0.777344,1.511,-3.107,0.382,31.71
2026-02-12 18:12:11.335,23.200,0.324219,0.507812,-0.777588,1.565,-2.779,0.405,31.46
2026-02-12 18:12:11.435,23.300,0.322510,0.504883,-0.777588,1.649,-2.672,0.267,32.00
2026-02-12 18:12:11.535,23.400,0.325439,0.503662,-0.780029,1.802,-3.214,0.321,31.36
2026-02-12 18:12:11.635,23.500,0.322510,0.506348,-0.779541,1.534,-2.802,0.092,31.66
2026-02-12 18:12:11.735,23.600,0.321289,0.509766,-0.782227,1.916,-2.802,0.351,31.51
2026-02-12 18:12:11.835,23.700,0.322754,0.509277,-0.774414,1.802,-2.985,0.710,31.66
2026-02-12 18:12:11.935,23.800,0.327637,0.508789,-0.778809,1.771,-2.992,0.359,31.66
2026-02-12 18:12:12.035,23.900,0.322266,0.509033,-0.791016,1.481,-2.779,0.359,31.66
2026-02-12 18:12:12.135,24.000,0.326416,0.505371,-0.775391,1.618,-2.672,0.298,31.66
2026-02-12 18:12:12.235,24.100,0.319824,0.507324,-0.778076,1.824,-2.863,0.405,31.66
2026-02-12 18:12:12.335,24.200,0.324707,0.505371,-0.779053,1.855,-3.107,0.137,31.66
2026-02-12 18:12:12.435,24.300,0.323242,0.507812,-0.781006,1.885,-2.870,0.450,31.66
2026-02-12 18:12:12.535,24.400,0.322510,0.506348,-0.775635,1.672,-2.771,0.168,31.36
2026-02-12 18:12:12.635,24.500,0.323730,0.505127,-0.781982,1.527,-2.779,0.344,31.36
2026-02-12 18:12:12.735,24.600,0.323486,0.507080,-0.779297,1.443,-2.763,0.382,31.56
2026-02-12 18:12:12.835,24.700,0.322510,0.507080,-0.777100,1.962,-3.137,0.351,31.46
2026-02-12 18:12:12.935,24.800,0.321533,0.508789,-0.777832,1.573,-2.901,0.191,31.36
2026-02-12 18:12:13.035,24.900,0.322998,0.506104,-0.774414,1.580,-2.618,0.366,31.51
2026-02-12 18:12:13.135,25.000,0.321533,0.507568,-0.775879,1.443,-2.664,0.481,31.46
2026-02-12 18:12:13.235,25.100,0.323486,0.509033,-0.780273,1.740,-2.824,0.275,31.51
2026-02-12 18:12:13.335,25.200,0.324463,0.507080,-0.776367,1.893,-2.718,0.053,31.66
2026-02-12 18:12:13.435,25.300,0.323486,0.508057,-0.774170,1.802,-3.000,0.252,31.56
2026-02-12 18:12:13.535,25.400,0.320312,0.506348,-0.775635,1.725,-3.023,0.160,31.66
2026-02-12 18:12:13.635,25.500,0.321045,0.508057,-0.772217,1.763,-2.962,0.237,31.66
2026-02-12 18:12:13.735,25.600,0.324463,0.507080,-0.777100,1.779,-2.725,0.260,31.51
2026-02-12 18:12:13.835,25.700,0.324463,0.508301,-0.783936,1.733,-2.588,0.237,31.46
2026-02-12 18:12:13.935,25.800,0.318604,0.506348,-0.784668,1.779,-2.947,0.290,31.71
2026-02-12 18:12:14.035,25.900,0.319580,0.506104,-0.777832,1.679,-2.962,0.321,31.51
2026-02-12 18:12:14.137,26.003,0.323242,0.510010,-0.777588,1.855,-2.832,0.405,31.51
2026-02-12 18:12:14.235,26.100,0.320801,0.506104,-0.781494,1.626,-2.733,0.176,31.51
2026-02-12 18:12:14.335,26.200,0.322021,0.505371,-0.769531,1.870,-2.771,0.168,31.46
2026-02-12 18:12:14.435,26.300,0.324463,0.507812,-0.779053,1.710,-2.901,0.389,31.36
2026-02-12 18:12:14.535,26.400,0.323486,0.507812,-0.774658,1.672,-2.931,0.115,31.56
2026-02-12 18:12:14.635,26.500,0.321777,0.509521,-0.780029,1.649,-2.618,0.206,31.36
2026-02-12 18:12:14.735,26.600,0.318604,0.504150,-0.778076,1.603,-2.771,0.351,31.32
2026-02-12 18:12:14.835,26.700,0.323242,0.510254,-0.776611,1.817,-2.901,0.282,31.51
2026-02-12 18:12:14.935,26.800,0.324707,0.506592,-0.773682,1.687,-2.802,-0.038,31.32
2026-02-12 18:12:15.035,26.900,0.323975,0.508301,-0.778809,1.733,-2.756,0.489,31.71
2026-02-12 18:12:15.135,27.000,0.320557,0.507324,-0.777588,1.840,-2.840,0.229,31.36
2026-02-12 18:12:15.235,27.100,0.325684,0.505615,-0.780762,1.649,-2.969,-0.053,31.46
2026-02-12 18:12:15.335,27.200,0.325928,0.507324,-0.780273,1.824,-2.656,0.183,31.51
2026-02-12 18:12:15.435,27.300,0.324463,0.507568,-0.782471,1.557,-2.748,0.336,31.56
2026-02-12 18:12:15.535,27.400,0.322266,0.508301,-0.783691,1.519,-2.817,0.481,31.36
2026-02-12 18:12:15.635,27.500,0.324219,0.508301,-0.774170,1.511,-2.962,0.237,31.66
2026-02-12 18:12:15.735,27.600,0.323975,0.506104,-0.778320,1.672,-2.496,0.145,31.46
2026-02-12 18:12:15.835,27.700,0.326172,0.507568,-0.776367,1.725,-2.992,0.550,31.32
2026-02-12 18:12:15.935,27.800,0.319580,0.504883,-0.767822,1.489,-2.481,0.534,31.66
2026-02-12 18:12:16.035,27.900,0.320801,0.504639,-0.781982,1.595,-2.786,0.366,31.56
2026-02-12 18:12:16.135,28.000,0.321045,0.502930,-0.780273,1.725,-2.664,0.389,31.32
2026-02-12 18:12:16.235,28.100,0.320557,0.506348,-0.776123,1.511,-2.802,0.237,31.51
2026-02-12 18:12:16.335,28.200,0.324951,0.509033,-0.774658,1.802,-2.733,0.427,31.66
2026-02-12 18:12:16.435,28.300,0.322510,0.506592,-0.771240,1.672,-3.000,0.153,31.36
2026-02-12 18:12:16.535,28.400,0.323486,0.505127,-0.770020,1.718,-2.771,0.489,31.66
2026-02-12 18:12:16.635,28.500,0.321289,0.509033,-0.778809,1.824,-2.817,0.107,31.76
2026-02-12 18:12:16.735,28.600,0.322510,0.506592,-0.777588,1.672,-2.679,0.664,31.56
2026-02-12 18:12:16.835,28.700,0.323975,0.506836,-0.780518,1.954,-2.802,0.176,31.46
2026-02-12 18:12:16.935,28.800,0.322998,0.507812,-0.780273,1.580,-2.794,0.328,31.66
2026-02-12 18:12:17.035,28.900,0.325684,0.505615,-0.780273,1.733,-2.954,0.389,31.36
2026-02-12 18:12:17.135,29.000,0.321045,0.507324,-0.778320,1.733,-2.748,-0.115,31.36
2026-02-12 18:12:17.235,29.100,0.323975,0.507080,-0.783203,1.771,-2.695,0.130,31.51
2026-02-12 18:12:17.335,29.200,0.324463,0.508057,-0.775635,1.664,-2.901,0.481,31.46
2026-02-12 18:12:17.435,29.300,0.324951,0.507324,-0.774170,1.725,-2.962,0.252,31.71
2026-02-12 18:12:17.535,29.400,0.321777,0.509766,-0.779785,1.771,-2.817,0.046,31.51
2026-02-12 18:12:17.635,29.500,0.322754,0.505371,-0.777100,1.458,-2.756,0.290,31.56
2026-02-12 18:12:17.735,29.600,0.321777,0.505859,-0.774170,1.702,-2.809,0.061,31.36
2026-02-12 18:12:17.835,29.700,0.322510,0.509033,-0.773926,1.718,-2.771,0.603,31.71
2026-02-12 18:12:17.935,29.800,0.322021,0.508789,-0.779785,1.450,-2.580,0.221,31.36
2026-02-12 18:12:18.035,29.900,0.322754,0.507568,-0.780762,1.725,-2.840,0.214,31.51
2026-02-12 18:12:18.135,30.000,0.321777,0.508545,-0.783447,1.840,-3.061,0.344,31.46
2026-02-12 18:12:18.235,30.100,0.322510,0.505371,-0.784912,1.672,-2.603,0.534,31.51
2026-02-12 18:12:18.335,30.200,0.320557,0.508301,-0.776123,1.840,-2.939,0.053,31.32
2026-02-12 18:12:18.435,30.300,0.323242,0.505371,-0.781982,1.908,-2.756,0.389,31.51
2026-02-12 18:12:18.535,30.400,0.322510,0.506348,-0.777344,1.740,-3.099,0.168,31.56
2026-02-12 18:12:18.635,30.500,0.324707,0.506592,-0.779541,1.725,-2.901,0.176,31.22
2026-02-12 18:12:18.735,30.600,0.323242,0.509766,-0.774658,1.893,-2.885,0.321,31.66
2026-02-12 18:12:18.835,30.700,0.322754,0.503418,-0.780029,1.595,-2.672,0.267,31.36
2026-02-12 18:12:18.935,30.800,0.322510,0.507080,-0.778320,1.809,-2.939,0.282,31.36
2026-02-12 18:12:19.035,30.900,0.320801,0.510498,-0.776123,1.908,-2.878,0.489,31.66
2026-02-12 18:12:19.135,31.000,0.324707,0.505615,-0.777832,1.672,-3.130,0.366,31.56
2026-02-12 18:12:19.235,31.100,0.322510,0.505859,-0.777588,1.748,-3.000,0.397,31.51
2026-02-12 18:12:19.335,31.200,0.323242,0.505371,-0.781250,1.954,-2.733,0.160,31.36
2026-02-12 18:12:19.435,31.300,0.325684,0.509521,-0.781250,1.557,-2.878,0.191,31.71
2026-02-12 18:12:19.535,31.400,0.324219,0.505615,-0.781738,1.687,-2.916,0.389,31.71
2026-02-12 18:12:19.635,31.500,0.324463,0.507568,-0.775635,1.695,-3.130,0.168,31.71
2026-02-12 18:12:19.735,31.600,0.322021,0.507080,-0.773193,1.802,-2.718,0.412,31.66
2026-02-12 18:12:19.835,31.700,0.321777,0.504639,-0.780518,1.687,-2.954,0.496,31.66
2026-02-12 18:12:19.935,31.800,0.325439,0.504639,-0.777100,1.840,-2.748,0.374,31.76
2026-02-12 18:12:20.035,31.900,0.322754,0.507324,-0.774414,1.664,-2.847,0.511,31.56
2026-02-12 18:12:20.135,32.000,0.322998,0.511475,-0.780762,1.794,-2.924,0.504,31.46
2026-02-12 18:12:20.235,32.100,0.324951,0.503906,-0.776855,1.702,-2.687,0.107,31.56
2026-02-12 18:12:20.335,32.200,0.325928,0.506836,-0.778320,1.817,-3.038,0.473,31.51
2026-02-12 18:12:20.435,32.300,0.324463,0.504883,-0.780273,1.824,-2.740,0.527,31.32
2026-02-12 18:12:20.535,32.400,0.323486,0.508789,-0.777832,1.908,-2.969,0.153,31.51
2026-02-12 18:12:20.635,32.500,0.322998,0.504639,-0.772949,1.695,-2.893,0.260,31.36
2026-02-12 18:12:20.735,32.600,0.321045,0.506348,-0.776367,1.725,-2.794,0.298,31.51
2026-02-12 18:12:20.835,32.700,0.323730,0.510010,-0.778564,1.603,-2.779,0.504,31.76
2026-02-12 18:12:20.935,32.800,0.323242,0.504639,-0.778564,1.641,-2.634,0.252,31.51
2026-02-12 18:12:21.035,32.900,0.321533,0.509033,-0.776611,1.565,-2.748,0.221,31.56
2026-02-12 18:12:21.135,33.000,0.321533,0.509766,-0.776611,1.664,-2.977,0.084,31.46
2026-02-12 18:12:21.235,33.100,0.322510,0.505127,-0.779297,1.702,-2.702,0.237,31.36
2026-02-12 18:12:21.335,33.200,0.325195,0.503174,-0.779541,1.550,-2.916,0.359,31.46
2026-02-12 18:12:21.437,33.300,0.323486,0.504639,-0.775635,1.634,-2.794,0.344,31.46
2026-02-12 18:12:21.535,33.400,0.323730,0.508789,-0.776367,1.802,-2.817,0.031,31.71
2026-02-12 18:12:21.644,33.501,0.324219,0.507568,-0.779053,1.466,-2.847,0.191,31.76
2026-02-12 18:12:21.735,33.600,0.324951,0.505859,-0.776611,1.702,-2.771,0.015,31.51
2026-02-12 18:12:21.835,33.700,0.320557,0.506592,-0.773682,1.756,-2.817,0.191,31.66
2026-02-12 18:12:21.935,33.800,0.322021,0.509521,-0.775635,1.725,-2.939,0.221,31.17
2026-02-12 18:12:22.036,33.901,0.322266,0.506836,-0.778076,1.916,-2.817,0.221,31.71
2026-02-12 18:12:22.135,34.000,0.322266,0.509521,-0.780029,1.565,-2.748,0.420,31.51
2026-02-12 18:12:22.235,34.100,0.320312,0.507080,-0.776367,1.740,-2.939,0.328,31.51
2026-02-12 18:12:22.335,34.200,0.322266,0.504883,-0.775146,1.840,-2.954,0.321,31.56
2026-02-12 18:12:22.435,34.300,0.321289,0.504395,-0.784668,1.885,-2.771,0.260,31.56
2026-02-12 18:12:22.535,34.400,0.321533,0.505127,-0.781494,1.328,-2.878,0.351,31.66
2026-02-12 18:12:22.635,34.500,0.322998,0.508301,-0.778564,2.000,-3.046,0.275,31.51
2026-02-12 18:12:22.735,34.600,0.322510,0.506592,-0.776367,1.710,-2.901,0.053,31.66
2026-02-12 18:12:22.835,34.700,0.322754,0.509277,-0.779785,1.641,-2.779,0.336,31.51
2026-02-12 18:12:22.935,34.800,0.317139,0.504150,-0.781738,1.618,-2.809,0.145,31.66
2026-02-12 18:12:23.035,34.900,0.324463,0.504639,-0.775391,1.603,-3.008,0.450,31.32
2026-02-12 18:12:23.135,35.000,0.320068,0.509277,-0.780029,1.832,-2.702,0.336,31.71
2026-02-12 18:12:23.235,35.100,0.319092,0.506592,-0.780029,1.626,-2.931,0.153,31.56
2026-02-12 18:12:23.335,35.200,0.319580,0.511230,-0.782227,1.580,-2.794,0.366,31.71
2026-02-12 18:12:23.435,35.300,0.322754,0.506836,-0.777588,1.962,-2.756,0.244,31.32
2026-02-12 18:12:23.535,35.400,0.320557,0.507812,-0.786865,1.695,-2.550,0.351,31.71
2026-02-12 18:12:23.635,35.500,0.323486,0.503662,-0.773682,1.740,-2.802,0.305,31.66
2026-02-12 18:12:23.735,35.600,0.325439,0.503662,-0.777832,1.748,-2.878,0.366,31.46
2026-02-12 18:12:23.835,35.700,0.322510,0.503418,-0.774658,1.588,-2.771,0.374,31.76
2026-02-12 18:12:23.935,35.800,0.323242,0.505127,-0.772217,1.672,-2.794,0.168,31.51
2026-02-12 18:12:24.035,35.900,0.321289,0.508545,-0.771240,1.687,-2.504,0.267,31.66
2026-02-12 18:12:24.135,36.000,0.321533,0.505371,-0.783691,1.595,-2.771,0.282,31.32
2026-02-12 18:12:24.235,36.100,0.321045,0.505859,-0.776611,1.763,-2.771,0.290,31.56
2026-02-12 18:12:24.335,36.200,0.324951,0.510742,-0.780273,1.756,-2.779,-0.031,31.66
2026-02-12 18:12:24.435,36.300,0.321533,0.510254,-0.774414,1.481,-2.763,0.252,31.66
2026-02-12 18:12:24.535,36.400,0.322266,0.506348,-0.781250,1.611,-2.695,0.008,31.51
2026-02-12 18:12:24.635,36.500,0.323975,0.510254,-0.781738,1.595,-2.771,0.313,31.36
2026-02-12 18:12:24.735,36.600,0.322021,0.504639,-0.780518,1.702,-2.824,0.565,31.56
2026-02-12 18:12:24.835,36.700,0.322998,0.503662,-0.778076,1.519,-3.015,0.252,31.56
2026-02-12 18:12:24.935,36.800,0.320801,0.507324,-0.785400,1.771,-2.924,0.359,31.51
2026-02-12 18:12:25.035,36.900,0.323975,0.509521,-0.777344,1.656,-2.779,0.420,31.51
2026-02-12 18:12:25.135,37.000,0.322266,0.505859,-0.777588,1.687,-2.702,0.573,31.71
2026-02-12 18:12:25.235,37.100,0.320557,0.504883,-0.773926,1.611,-2.733,0.473,31.66
2026-02-12 18:12:25.335,37.200,0.321045,0.509277,-0.781006,1.511,-3.069,0.214,31.56
2026-02-12 18:12:25.435,37.300,0.324707,0.503906,-0.781738,1.885,-2.954,0.275,31.76
2026-02-12 18:12:25.535,37.400,0.324707,0.505615,-0.781738,1.603,-2.817,0.389,31.46
2026-02-12 18:12:25.635,37.500,0.322754,0.507812,-0.772949,1.626,-2.832,0.099,31.66
2026-02-12 18:12:25.735,37.600,0.323975,0.510254,-0.778809,1.405,-2.969,0.183,31.32
2026-02-12 18:12:25.836,37.701,0.321045,0.506836,-0.779785,1.916,-2.733,0.298,31.66
2026-02-12 18:12:25.935,37.800,0.324951,0.505859,-0.776367,1.763,-2.756,0.351,31.66
2026-02-12 18:12:26.038,37.901,0.322021,0.503662,-0.784424,1.855,-2.885,-0.008,31.36
2026-02-12 18:12:26.135,38.000,0.323242,0.507080,-0.782959,1.824,-2.832,0.290,31.36
2026-02-12 18:12:26.235,38.100,0.322754,0.505615,-0.776367,1.557,-2.733,0.252,31.66
2026-02-12 18:12:26.335,38.200,0.321777,0.506104,-0.775391,1.817,-2.847,0.130,31.32
2026-02-12 18:12:26.435,38.300,0.327393,0.507080,-0.777344,1.573,-3.038,0.176,31.32
2026-02-12 18:12:26.535,38.400,0.320557,0.506348,-0.777344,1.649,-2.847,0.275,31.71
2026-02-12 18:12:26.635,38.500,0.325684,0.508545,-0.781494,1.603,-3.046,0.466,31.32
2026-02-12 18:12:26.735,38.600,0.321045,0.503906,-0.778564,1.679,-2.809,0.412,31.56
2026-02-12 18:12:26.835,38.700,0.323975,0.506836,-0.774902,1.786,-2.748,0.267,31.32
2026-02-12 18:12:26.935,38.800,0.323730,0.504639,-0.774170,1.641,-2.924,-0.153,31.46
2026-02-12 18:12:27.035,38.900,0.324463,0.503662,-0.781250,1.756,-2.756,0.328,31.36
2026-02-12 18:12:27.135,39.000,0.325195,0.507812,-0.781006,1.618,-3.160,0.145,31.66
2026-02-12 18:12:27.235,39.100,0.321289,0.508789,-0.777832,1.794,-2.771,0.550,31.66
2026-02-12 18:12:27.335,39.200,0.324219,0.507080,-0.777100,1.840,-2.771,0.122,31.51
2026-02-12 18:12:27.435,39.300,0.324463,0.505371,-0.781250,1.878,-2.634,0.168,31.51
2026-02-12 18:12:27.535,39.400,0.322510,0.506836,-0.771484,1.771,-2.847,0.206,31.51
2026-02-12 18:12:27.635,39.500,0.323486,0.504395,-0.777588,1.870,-2.977,0.374,31.76
2026-02-12 18:12:27.735,39.600,0.321777,0.504395,-0.777344,1.939,-2.817,0.366,31.36
2026-02-12 18:12:27.835,39.700,0.322754,0.505127,-0.776367,1.672,-2.611,0.130,31.22
2026-02-12 18:12:27.935,39.800,0.324951,0.501465,-0.781006,1.763,-2.634,0.214,31.76
2026-02-12 18:12:28.035,39.900,0.323486,0.504395,-0.779541,1.733,-2.992,0.344,31.51
2026-02-12 18:12:28.135,40.000,0.321289,0.507080,-0.782227,1.557,-2.771,-0.069,31.56
2026-02-12 18:12:28.235,40.100,0.322021,0.510742,-0.780518,1.771,-2.870,0.366,31.66
2026-02-12 18:12:28.335,40.200,0.322266,0.509277,-0.774414,1.664,-3.046,0.176,31.36
2026-02-12 18:12:28.435,40.300,0.322998,0.509277,-0.777588,1.611,-2.771,0.496,31.71
2026-02-12 18:12:28.535,40.400,0.320312,0.508545,-0.775146,1.885,-2.901,0.450,31.36
2026-02-12 18:12:28.635,40.500,0.322266,0.507568,-0.775391,1.649,-2.771,0.061,31.36
2026-02-12 18:12:28.735,40.600,0.323730,0.505859,-0.780029,1.695,-2.779,0.298,31.56
2026-02-12 18:12:28.835,40.700,0.323486,0.509277,-0.776855,1.695,-3.061,0.137,31.51
2026-02-12 18:12:28.935,40.800,0.322754,0.508789,-0.782227,1.740,-2.771,0.328,31.71
2026-02-12 18:12:29.035,40.900,0.323242,0.510010,-0.783691,1.611,-2.977,0.328,31.56
2026-02-12 18:12:29.135,41.000,0.323486,0.508301,-0.779297,1.992,-2.931,0.359,31.66
2026-02-12 18:12:29.235,41.100,0.323975,0.502441,-0.781250,1.718,-2.992,0.260,31.46
2026-02-12 18:12:29.335,41.200,0.321045,0.505127,-0.775391,1.939,-2.756,0.328,31.36
2026-02-12 18:12:29.435,41.300,0.322510,0.505371,-0.779297,1.733,-2.939,0.061,31.56
2026-02-12 18:12:29.535,41.400,0.322021,0.508545,-0.786865,1.634,-2.656,0.634,31.46
2026-02-12 18:12:29.635,41.500,0.322266,0.506592,-0.771973,1.511,-2.634,0.389,31.56
2026-02-12 18:12:29.735,41.600,0.324463,0.506836,-0.779785,1.855,-3.023,0.176,31.32
2026-02-12 18:12:29.835,41.700,0.322021,0.512939,-0.779785,1.634,-3.183,0.008,31.56
2026-02-12 18:12:29.935,41.800,0.326416,0.510498,-0.777344,1.931,-2.786,0.214,31.66
2026-02-12 18:12:30.035,41.900,0.321045,0.506348,-0.780273,1.763,-2.779,0.290,31.32
2026-02-12 18:12:30.135,42.000,0.322998,0.506836,-0.775879,1.802,-2.664,0.275,31.66
2026-02-12 18:12:30.235,42.100,0.324463,0.505615,-0.783447,1.557,-2.901,0.214,31.66
2026-02-12 18:12:30.335,42.200,0.324951,0.507080,-0.780762,1.626,-2.786,0.153,31.71
2026-02-12 18:12:30.435,42.300,0.322266,0.507812,-0.781006,1.397,-2.878,0.420,31.66
2026-02-12 18:12:30.535,42.400,0.323730,0.506348,-0.778564,1.656,-2.847,0.450,31.51
2026-02-12 18:12:30.635,42.500,0.320557,0.506348,-0.774170,1.634,-2.740,0.458,31.51
2026-02-12 18:12:30.735,42.600,0.324951,0.509033,-0.778320,1.443,-2.695,0.328,31.56
2026-02-12 18:12:30.835,42.700,0.324219,0.504883,-0.780518,1.603,-2.985,0.198,31.51
2026-02-12 18:12:30.935,42.800,0.322266,0.507812,-0.773438,1.878,-2.733,0.229,31.36
2026-02-12 18:12:31.035,42.900,0.325195,0.507324,-0.772949,1.656,-2.893,-0.008,31.32
2026-02-12 18:12:31.135,43.000,0.321289,0.508057,-0.774658,1.771,-2.885,0.176,31.46
2026-02-12 18:12:31.235,43.100,0.321533,0.509521,-0.786377,1.702,-3.130,0.267,31.66
2026-02-12 18:12:31.335,43.200,0.325439,0.502686,-0.778076,1.878,-2.718,0.122,31.51
2026-02-12 18:12:31.435,43.300,0.323486,0.504883,-0.776367,1.649,-2.840,0.267,31.71
2026-02-12 18:12:31.535,43.400,0.321533,0.509766,-0.778809,1.565,-2.802,0.305,31.51
2026-02-12 18:12:31.635,43.500,0.322021,0.505615,-0.784424,1.664,-2.817,0.344,31.51
2026-02-12 18:12:31.735,43.600,0.324951,0.505615,-0.779297,1.443,-2.885,0.267,31.71
2026-02-12 18:12:31.835,43.700,0.326416,0.508057,-0.775146,1.656,-2.771,0.450,31.46
2026-02-12 18:12:31.935,43.800,0.320557,0.506836,-0.782471,1.832,-3.031,0.176,31.36
2026-02-12 18:12:32.035,43.900,0.319092,0.505615,-0.784424,1.481,-2.763,0.214,31.71
2026-02-12 18:12:32.135,44.000,0.321533,0.504883,-0.770996,1.954,-2.924,-0.008,31.56
2026-02-12 18:12:32.235,44.100,0.320312,0.505371,-0.778564,1.664,-2.901,0.038,31.51
2026-02-12 18:12:32.335,44.200,0.319824,0.512939,-0.778320,1.687,-2.939,0.290,31.66
2026-02-12 18:12:32.435,44.300,0.320068,0.510986,-0.780518,1.634,-3.023,0.191,31.66
2026-02-12 18:12:32.535,44.400,0.322998,0.507080,-0.782227,1.824,-3.069,0.489,31.51
2026-02-12 18:12:32.635,44.500,0.322754,0.507080,-0.774170,1.725,-2.687,0.176,31.51
2026-02-12 18:12:32.735,44.600,0.320557,0.509033,-0.782471,1.595,-2.649,0.191,31.66
2026-02-12 18:12:32.835,44.700,0.324463,0.510498,-0.782227,1.771,-3.053,0.260,31.36
2026-02-12 18:12:32.935,44.800,0.323242,0.506592,-0.780762,1.794,-2.855,0.252,31.56
2026-02-12 18:12:33.035,44.900,0.322021,0.506836,-0.770996,1.733,-2.664,0.481,31.66
2026-02-12 18:12:33.135,45.000,0.321045,0.505859,-0.773926,1.626,-2.901,0.252,31.66
2026-02-12 18:12:33.235,45.100,0.323975,0.509277,-0.778076,1.817,-2.718,0.557,31.71
2026-02-12 18:12:33.335,45.200,0.323486,0.505859,-0.777588,1.740,-2.740,0.145,31.66
2026-02-12 18:12:33.435,45.300,0.323975,0.508545,-0.781982,1.550,-2.885,0.084,31.51
2026-02-12 18:12:33.535,45.400,0.321289,0.505127,-0.778076,1.595,-2.779,0.366,31.36
2026-02-12 18:12:33.635,45.500,0.325928,0.503662,-0.772461,1.481,-2.985,0.115,31.51
2026-02-12 18:12:33.735,45.600,0.319336,0.506836,-0.779053,1.695,-2.580,0.122,31.66
2026-02-12 18:12:33.835,45.700,0.320312,0.508057,-0.779785,1.939,-2.809,0.221,31.76
2026-02-12 18:12:33.935,45.800,0.325684,0.503174,-0.778809,1.809,-2.733,0.275,31.71
2026-02-12 18:12:34.035,45.900,0.322510,0.507324,-0.775635,1.649,-2.802,0.389,31.51
2026-02-12 18:12:34.135,46.000,0.321777,0.504883,-0.776611,1.878,-2.931,0.542,31.76
2026-02-12 18:12:34.235,46.100,0.321289,0.506104,-0.776123,1.702,-2.954,0.321,31.32
2026-02-12 18:12:34.335,46.200,0.320801,0.508057,-0.778320,1.611,-2.947,0.275,31.51
2026-02-12 18:12:34.435,46.300,0.324707,0.508301,-0.782227,1.527,-2.924,0.298,31.36
2026-02-12 18:12:34.535,46.400,0.323486,0.509277,-0.776367,1.672,-2.817,0.321,31.71
2026-02-12 18:12:34.635,46.500,0.322510,0.506348,-0.781494,1.489,-2.733,0.115,31.66
2026-02-12 18:12:34.735,46.600,0.324463,0.507568,-0.778564,1.840,-2.702,0.214,31.22
2026-02-12 18:12:34.835,46.700,0.320312,0.507812,-0.774658,1.916,-2.962,0.351,31.66
2026-02-12 18:12:34.935,46.800,0.321777,0.508301,-0.785645,1.481,-3.092,0.321,31.51
2026-02-12 18:12:35.035,46.900,0.321777,0.507812,-0.781494,1.687,-2.985,0.000,31.51
2026-02-12 18:12:35.135,47.000,0.321289,0.508545,-0.775635,1.672,-2.779,0.458,31.36
2026-02-12 18:12:35.235,47.100,0.325439,0.505859,-0.783691,1.611,-2.855,0.305,31.66
2026-02-12 18:12:35.335,47.200,0.320801,0.508545,-0.781006,1.817,-3.183,0.328,31.51
2026-02-12 18:12:35.435,47.300,0.326660,0.509521,-0.778809,1.695,-2.885,0.313,31.56
2026-02-12 18:12:35.535,47.400,0.322754,0.507812,-0.784180,1.557,-2.763,0.351,31.66
2026-02-12 18:12:35.635,47.500,0.324463,0.509033,-0.780518,1.504,-2.740,0.496,31.56
2026-02-12 18:12:35.735,47.600,0.322998,0.507080,-0.773682,1.916,-2.748,0.336,31.76
2026-02-12 18:12:35.835,47.700,0.324707,0.503418,-0.781738,1.603,-2.893,0.504,31.71
2026-02-12 18:12:35.935,47.800,0.326172,0.505615,-0.777588,1.496,-2.809,0.206,31.71
2026-02-12 18:12:36.035,47.900,0.323730,0.508545,-0.782959,1.725,-2.771,0.099,31.46
2026-02-12 18:12:36.135,48.000,0.324951,0.503662,-0.777100,1.847,-2.863,0.198,31.51
2026-02-12 18:12:36.235,48.100,0.323242,0.510010,-0.772461,1.626,-3.176,0.244,31.66
2026-02-12 18:12:36.335,48.200,0.318604,0.510986,-0.778564,2.061,-2.611,0.626,31.51
2026-02-12 18:12:36.435,48.300,0.322266,0.508057,-0.778076,1.664,-2.901,0.313,31.66
2026-02-12 18:12:36.535,48.400,0.324707,0.506104,-0.773193,1.771,-2.832,0.313,31.71
2026-02-12 18:12:36.635,48.500,0.320312,0.508545,-0.780518,1.603,-2.893,0.084,31.76
2026-02-12 18:12:36.735,48.600,0.322510,0.506104,-0.772949,1.634,-2.740,0.122,31.66
2026-02-12 18:12:36.835,48.700,0.324707,0.505615,-0.775879,1.710,-2.641,0.519,31.76
2026-02-12 18:12:36.935,48.800,0.323486,0.505859,-0.782715,1.756,-2.847,0.458,31.66
2026-02-12 18:12:37.035,48.900,0.322266,0.508057,-0.780029,1.557,-2.763,0.305,31.71
2026-02-12 18:12:37.135,49.000,0.318848,0.506104,-0.783203,1.626,-2.679,0.076,31.36
2026-02-12 18:12:37.235,49.100,0.323730,0.504883,-0.775146,1.847,-2.992,0.359,31.46
2026-02-12 18:12:37.335,49.200,0.324707,0.508057,-0.776611,1.771,-2.893,0.038,31.36
2026-02-12 18:12:37.435,49.300,0.323730,0.507080,-0.779053,1.695,-3.076,0.321,31.02
2026-02-12 18:12:37.535,49.400,0.321289,0.506104,-0.776611,1.901,-2.908,0.130,31.71
2026-02-12 18:12:37.635,49.500,0.322510,0.506836,-0.776367,1.840,-2.618,0.260,31.02
2026-02-12 18:12:37.735,49.600,0.325928,0.506348,-0.780762,1.908,-2.802,0.313,31.71
2026-02-12 18:12:37.835,49.700,0.321533,0.508057,-0.780762,1.786,-2.489,0.099,31.71
2026-02-12 18:12:37.935,49.800,0.323730,0.509033,-0.778076,1.550,-2.908,0.183,31.66
2026-02-12 18:12:38.035,49.900,0.325928,0.507324,-0.770752,1.580,-2.794,0.160,31.66
2026-02-12 18:12:38.135,50.000,0.321533,0.508545,-0.775391,1.672,-2.718,0.191,31.51
2026-02-12 18:12:38.235,50.100,0.323242,0.503906,-0.776123,1.481,-2.756,0.611,31.71
2026-02-12 18:12:38.335,50.200,0.322510,0.506104,-0.775146,1.664,-2.855,-0.176,31.32
2026-02-12 18:12:38.435,50.300,0.323242,0.508057,-0.781006,1.756,-2.802,0.366,31.71
2026-02-12 18:12:38.535,50.400,0.324707,0.508789,-0.777832,1.702,-2.840,0.130,31.66
2026-02-12 18:12:38.635,50.500,0.320312,0.505859,-0.779785,1.847,-2.870,0.328,31.76
2026-02-12 18:12:38.735,50.600,0.323730,0.507324,-0.779785,1.679,-2.603,0.595,31.32
2026-02-12 18:12:38.835,50.700,0.323242,0.505615,-0.780029,1.840,-2.649,0.305,31.51
2026-02-12 18:12:38.935,50.800,0.321289,0.509521,-0.775879,1.733,-2.962,0.260,31.66
2026-02-12 18:12:39.035,50.900,0.322510,0.506348,-0.781494,1.321,-2.855,0.115,31.36
2026-02-12 18:12:39.135,51.000,0.319580,0.507812,-0.779541,1.496,-2.695,0.435,31.71
2026-02-12 18:12:39.235,51.101,0.323730,0.506592,-0.774658,1.702,-2.847,0.252,31.46
2026-02-12 18:12:39.335,51.200,0.320557,0.508301,-0.776367,1.672,-2.817,0.412,31.36
2026-02-12 18:12:39.435,51.300,0.325928,0.507812,-0.781738,1.794,-2.748,0.137,31.66
2026-02-12 18:12:39.535,51.400,0.325928,0.507812,-0.781006,1.893,-2.634,0.206,31.46
2026-02-12 18:12:39.635,51.500,0.324951,0.510010,-0.781006,1.817,-2.832,0.214,31.66
2026-02-12 18:12:39.735,51.600,0.323486,0.506348,-0.781738,1.649,-2.901,0.328,31.66
2026-02-12 18:12:39.835,51.700,0.318604,0.506836,-0.778564,1.649,-2.786,-0.145,31.51
2026-02-12 18:12:39.935,51.800,0.321533,0.509277,-0.782471,1.702,-3.115,0.221,31.71
2026-02-12 18:12:40.035,51.900,0.321289,0.508057,-0.777832,1.618,-2.855,0.588,31.85
2026-02-12 18:12:40.135,52.000,0.324463,0.506104,-0.781006,1.824,-2.847,0.344,31.56
2026-02-12 18:12:40.235,52.100,0.323242,0.506592,-0.787354,1.878,-2.794,0.244,31.32
2026-02-12 18:12:40.335,52.200,0.326904,0.506104,-0.779297,1.847,-2.947,0.275,31.36
2026-02-12 18:12:40.435,52.300,0.325195,0.503662,-0.781250,1.412,-2.802,0.359,31.76
2026-02-12 18:12:40.535,52.400,0.322754,0.508789,-0.778320,1.771,-2.939,0.267,31.36
2026-02-12 18:12:40.635,52.500,0.322021,0.510010,-0.779785,1.679,-2.809,0.061,31.46
2026-02-12 18:12:40.735,52.600,0.326416,0.505371,-0.777100,1.733,-2.718,0.519,31.66
2026-02-12 18:12:40.835,52.700,0.324707,0.507568,-0.783691,1.855,-3.046,0.305,31.46
2026-02-12 18:12:40.935,52.800,0.321533,0.506592,-0.772949,1.679,-2.817,0.359,31.46
2026-02-12 18:12:41.035,52.900,0.318604,0.508545,-0.785889,1.817,-2.885,0.298,31.56
2026-02-12 18:12:41.135,53.000,0.321777,0.504639,-0.781494,1.672,-2.824,0.542,31.51
2026-02-12 18:12:41.235,53.100,0.323975,0.507812,-0.778076,1.725,-2.756,0.092,31.51
2026-02-12 18:12:41.335,53.200,0.323975,0.504395,-0.773926,1.641,-2.802,0.649,31.66
2026-02-12 18:12:41.435,53.300,0.319336,0.507080,-0.779297,1.580,-2.664,0.282,31.66
2026-02-12 18:12:41.535,53.400,0.322266,0.505859,-0.773926,1.695,-2.565,0.061,31.51
2026-02-12 18:12:41.635,53.500,0.323975,0.506104,-0.781250,1.740,-2.550,0.397,31.66
2026-02-12 18:12:41.735,53.600,0.326172,0.509033,-0.784180,1.840,-3.000,0.473,31.36
2026-02-12 18:12:41.835,53.700,0.323975,0.504883,-0.781006,1.748,-2.664,-0.076,31.51
2026-02-12 18:12:41.935,53.800,0.323486,0.509521,-0.775879,1.542,-2.855,0.298,31.66
2026-02-12 18:12:42.035,53.900,0.323730,0.511230,-0.781250,1.779,-2.794,0.229,31.51
2026-02-12 18:12:42.135,54.000,0.321777,0.505615,-0.780029,1.847,-2.863,0.183,31.51
2026-02-12 18:12:42.235,54.100,0.322266,0.506592,-0.781494,1.878,-2.947,0.107,31.71
2026-02-12 18:12:42.335,54.200,0.325439,0.505859,-0.776611,1.595,-2.809,0.458,31.66
2026-02-12 18:12:42.435,54.300,0.321289,0.508057,-0.780762,1.779,-2.832,0.427,31.36
2026-02-12 18:12:42.535,54.400,0.324951,0.506592,-0.780518,1.740,-2.718,0.397,31.66
2026-02-12 18:12:42.635,54.500,0.322510,0.509766,-0.777832,1.580,-2.733,0.229,31.36
2026-02-12 18:12:42.735,54.600,0.321045,0.505127,-0.785156,1.573,-2.939,0.336,31.51
2026-02-12 18:12:42.835,54.700,0.322021,0.506592,-0.776367,1.664,-2.794,0.107,31.71
2026-02-12 18:12:42.935,54.800,0.321533,0.508789,-0.777100,1.786,-2.802,0.290,31.36
2026-02-12 18:12:43.035,54.900,0.325439,0.505615,-0.777100,1.794,-2.618,0.405,31.66
2026-02-12 18:12:43.135,55.000,0.322510,0.508789,-0.776123,1.740,-2.947,0.267,31.46
2026-02-12 18:12:43.235,55.100,0.325195,0.508789,-0.780518,1.740,-2.908,0.260,31.32
2026-02-12 18:12:43.335,55.200,0.325684,0.504883,-0.776611,1.756,-2.794,0.237,31.32
2026-02-12 18:12:43.435,55.300,0.323486,0.505859,-0.778809,1.687,-2.809,0.359,31.71
2026-02-12 18:12:43.535,55.400,0.322021,0.506104,-0.776611,1.565,-3.099,0.183,31.71
2026-02-12 18:12:43.635,55.500,0.322510,0.507080,-0.780029,1.740,-2.878,0.153,31.66
2026-02-12 18:12:43.735,55.600,0.323975,0.507568,-0.771973,1.725,-2.802,0.328,31.22
2026-02-12 18:12:43.835,55.700,0.323242,0.505615,-0.774902,1.977,-2.786,0.053,31.66
2026-02-12 18:12:43.935,55.800,0.319824,0.506592,-0.778076,1.573,-2.679,0.328,31.32
2026-02-12 18:12:44.035,55.900,0.322998,0.506348,-0.777100,1.885,-2.893,0.244,31.76
2026-02-12 18:12:44.135,56.000,0.325195,0.511475,-0.779053,1.504,-2.626,0.206,31.51
2026-02-12 18:12:44.235,56.100,0.322998,0.508057,-0.778564,1.641,-2.840,0.107,31.76
2026-02-12 18:12:44.335,56.200,0.323730,0.506836,-0.776367,1.870,-2.794,0.290,31.36
2026-02-12 18:12:44.435,56.300,0.326172,0.507812,-0.779297,1.534,-2.733,0.305,31.46
2026-02-12 18:12:44.535,56.400,0.323975,0.507324,-0.776123,1.557,-2.748,0.397,31.46
2026-02-12 18:12:44.635,56.500,0.321777,0.506592,-0.776123,1.641,-2.626,0.015,31.66
2026-02-12 18:12:44.735,56.600,0.322266,0.505859,-0.772461,1.771,-2.985,-0.084,31.56
2026-02-12 18:12:44.835,56.700,0.323486,0.508545,-0.776855,1.794,-2.794,0.336,31.66
2026-02-12 18:12:44.935,56.800,0.322266,0.511230,-0.775635,1.626,-2.863,0.626,31.76
2026-02-12 18:12:45.035,56.900,0.322754,0.506592,-0.779053,1.847,-2.817,0.198,31.51
2026-02-12 18:12:45.135,57.000,0.324219,0.508545,-0.780029,1.802,-2.840,0.351,31.66
2026-02-12 18:12:45.235,57.100,0.323242,0.509277,-0.781006,1.687,-2.626,0.435,31.66
2026-02-12 18:12:45.335,57.200,0.323730,0.504639,-0.777344,2.160,-3.153,0.328,31.46
2026-02-12 18:12:45.435,57.300,0.322998,0.506104,-0.779297,1.626,-2.962,0.389,31.51
2026-02-12 18:12:45.537,57.402,0.323242,0.506592,-0.776611,1.603,-3.260,0.359,31.51
2026-02-12 18:12:45.635,57.500,0.323486,0.509521,-0.782227,1.527,-2.832,0.397,31.56
2026-02-12 18:12:45.735,57.600,0.320557,0.508545,-0.780273,1.260,-2.802,0.214,31.51
2026-02-12 18:12:45.835,57.700,0.324219,0.501953,-0.780029,1.695,-2.702,-0.046,31.71
2026-02-12 18:12:45.935,57.800,0.317383,0.503418,-0.779785,1.687,-3.023,0.115,31.71
2026-02-12 18:12:46.035,57.900,0.322998,0.503906,-0.775635,1.725,-2.725,0.321,31.56
2026-02-12 18:12:46.135,58.000,0.321533,0.507812,-0.778076,1.557,-2.870,0.481,31.71
2026-02-12 18:12:46.235,58.100,0.324219,0.512939,-0.779785,1.901,-3.153,0.267,31.36
2026-02-12 18:12:46.335,58.200,0.321777,0.506836,-0.776367,1.779,-2.939,0.160,31.32
2026-02-12 18:12:46.435,58.300,0.325684,0.508301,-0.776611,1.702,-2.679,0.153,31.71
2026-02-12 18:12:46.535,58.400,0.324951,0.505859,-0.780273,1.687,-2.840,0.359,31.51
2026-02-12 18:12:46.635,58.500,0.322998,0.506592,-0.779053,1.740,-2.832,0.145,31.66
2026-02-12 18:12:46.735,58.600,0.326660,0.504883,-0.780518,1.557,-2.748,0.237,31.56
2026-02-12 18:12:46.835,58.700,0.323486,0.507324,-0.781494,1.931,-3.260,0.191,31.51
2026-02-12 18:12:46.935,58.800,0.325195,0.507080,-0.785156,1.649,-2.924,0.252,31.51
2026-02-12 18:12:47.035,58.900,0.325439,0.504639,-0.781738,1.565,-2.878,0.458,31.36
2026-02-12 18:12:47.135,59.000,0.317139,0.507324,-0.777100,1.733,-2.740,0.389,31.32
2026-02-12 18:12:47.235,59.100,0.323242,0.504639,-0.782959,1.771,-2.954,0.336,31.66
2026-02-12 18:12:47.335,59.200,0.322998,0.507568,-0.780273,1.557,-2.664,0.374,31.32
2026-02-12 18:12:47.435,59.300,0.323242,0.505615,-0.772949,1.901,-2.771,0.458,31.32
2026-02-12 18:12:47.535,59.400,0.322021,0.506592,-0.779541,1.687,-3.069,0.229,31.51
2026-02-12 18:12:47.635,59.500,0.322021,0.508301,-0.779541,1.824,-2.786,0.481,31.66
2026-02-12 18:12:47.735,59.600,0.322021,0.507812,-0.780518,1.786,-2.794,0.519,31.56
2026-02-12 18:12:47.835,59.700,0.323730,0.509033,-0.775391,1.794,-2.802,0.321,31.66
2026-02-12 18:12:47.935,59.800,0.323730,0.510254,-0.782227,1.878,-2.908,0.458,31.32
2026-02-12 18:12:48.035,59.900,0.327148,0.505859,-0.781982,1.687,-3.061,0.038,31.66
2026-02-12 18:12:48.135,60.000,0.324219,0.508545,-0.777344,1.679,-2.634,-0.160,31.66
2026-02-12 18:12:48.235,60.100,0.322021,0.508545,-0.777344,1.656,-2.542,0.382,31.66
2026-02-12 18:12:48.335,60.200,0.319092,0.505127,-0.774902,1.786,-3.122,0.634,31.56
2026-02-12 18:12:48.435,60.300,0.323975,0.506592,-0.776123,1.710,-2.878,0.130,31.36
2026-02-12 18:12:48.537,60.402,0.322510,0.509277,-0.779785,1.626,-2.710,0.160,31.56
2026-02-12 18:12:48.635,60.500,0.324707,0.504639,-0.778076,1.664,-2.771,-0.038,31.56
2026-02-12 18:12:48.735,60.600,0.325439,0.507812,-0.784668,1.840,-3.069,0.237,31.51
2026-02-12 18:12:48.835,60.700,0.323242,0.510010,-0.780273,1.695,-2.847,0.214,31.71
2026-02-12 18:12:48.935,60.800,0.325928,0.508545,-0.776123,1.794,-2.832,0.092,31.17
2026-02-12 18:12:49.035,60.900,0.320801,0.510498,-0.780029,1.916,-2.618,0.290,31.51
2026-02-12 18:12:49.135,61.000,0.322021,0.510742,-0.771484,1.466,-2.740,0.580,31.66
2026-02-12 18:12:49.235,61.100,0.318115,0.506348,-0.779785,1.672,-2.756,0.282,31.66
2026-02-12 18:12:49.335,61.200,0.321045,0.505127,-0.781738,1.748,-2.733,0.084,31.51
2026-02-12 18:12:49.435,61.300,0.320068,0.509521,-0.777588,1.687,-2.550,0.275,31.71
2026-02-12 18:12:49.535,61.400,0.322754,0.506104,-0.779785,1.908,-2.725,0.198,31.51
2026-02-12 18:12:49.635,61.500,0.324219,0.507080,-0.785645,1.595,-2.542,0.267,31.46
2026-02-12 18:12:49.735,61.600,0.326172,0.503418,-0.781494,2.076,-3.000,0.130,31.46
2026-02-12 18:12:49.835,61.700,0.324707,0.505859,-0.775879,1.511,-2.794,0.092,31.51
2026-02-12 18:12:49.935,61.800,0.320068,0.509033,-0.781006,1.672,-2.885,0.076,31.56
2026-02-12 18:12:50.035,61.900,0.322021,0.506104,-0.778809,1.748,-2.649,0.458,31.46
2026-02-12 18:12:50.135,62.000,0.321289,0.505371,-0.779053,1.595,-2.763,0.206,31.36
2026-02-12 18:12:50.235,62.100,0.322754,0.509766,-0.781006,1.824,-3.008,0.305,31.51
2026-02-12 18:12:50.335,62.200,0.323486,0.510498,-0.786865,1.817,-2.664,-0.084,31.66
2026-02-12 18:12:50.435,62.300,0.321289,0.508301,-0.782471,1.672,-2.779,0.008,31.32
2026-02-12 18:12:50.535,62.400,0.322266,0.510010,-0.770508,1.771,-2.595,0.183,31.71
2026-02-12 18:12:50.635,62.500,0.322510,0.506348,-0.776123,1.710,-2.748,0.473,31.66
2026-02-12 18:12:50.735,62.600,0.321045,0.512207,-0.783691,1.435,-2.977,0.076,31.22
2026-02-12 18:12:50.835,62.700,0.321289,0.510254,-0.777588,1.916,-2.496,0.168,31.56
2026-02-12 18:12:50.935,62.800,0.324463,0.503174,-0.775635,1.588,-2.863,0.260,31.51
2026-02-12 18:12:51.035,62.900,0.322754,0.509521,-0.772705,1.397,-2.840,0.450,31.56
2026-02-12 18:12:51.135,63.000,0.317871,0.501953,-0.780273,1.847,-2.771,0.313,31.46
2026-02-12 18:12:51.235,63.100,0.324219,0.505371,-0.781738,1.870,-3.069,0.107,31.46
2026-02-12 18:12:51.335,63.200,0.323975,0.506592,-0.773193,1.748,-2.656,0.130,31.51
2026-02-12 18:12:51.435,63.300,0.327637,0.505371,-0.770752,1.695,-2.962,0.519,31.36
2026-02-12 18:12:51.535,63.400,0.317383,0.508789,-0.778809,1.779,-2.809,0.160,31.66
2026-02-12 18:12:51.635,63.500,0.320068,0.507568,-0.780273,1.664,-2.855,0.321,31.51
2026-02-12 18:12:51.735,63.600,0.318115,0.508301,-0.781494,1.901,-2.748,0.374,31.71
2026-02-12 18:12:51.835,63.700,0.321533,0.507080,-0.782471,1.924,-2.916,0.153,31.36
2026-02-12 18:12:51.935,63.800,0.324951,0.504639,-0.783691,1.725,-2.939,0.519,31.51
2026-02-12 18:12:52.035,63.900,0.326416,0.505859,-0.776367,1.679,-2.809,0.267,31.66
2026-02-12 18:12:52.135,64.000,0.322266,0.507568,-0.776855,1.763,-2.504,0.076,31.71
2026-02-12 18:12:52.235,64.100,0.324463,0.503174,-0.778320,1.725,-2.802,0.275,31.51
2026-02-12 18:12:52.335,64.200,0.327393,0.506104,-0.774658,1.817,-2.817,0.313,31.56
2026-02-12 18:12:52.435,64.300,0.320557,0.507568,-0.772461,1.924,-2.794,0.382,31.66
2026-02-12 18:12:52.535,64.400,0.323975,0.510010,-0.773193,1.863,-2.863,0.328,31.56
2026-02-12 18:12:52.635,64.500,0.322510,0.504395,-0.780762,1.870,-2.893,0.153,31.46
2026-02-12 18:12:52.735,64.600,0.321045,0.510742,-0.781982,1.656,-2.664,0.466,31.51
2026-02-12 18:12:52.835,64.700,0.322021,0.507568,-0.775391,1.550,-2.794,0.389,31.36
2026-02-12 18:12:52.935,64.800,0.319580,0.506104,-0.778076,1.855,-3.000,0.122,31.51
2026-02-12 18:12:53.035,64.900,0.323242,0.503174,-0.771484,1.710,-3.076,0.214,31.66
2026-02-12 18:12:53.135,65.000,0.322510,0.512207,-0.779053,1.733,-3.000,0.443,31.32
2026-02-12 18:12:53.235,65.100,0.322754,0.507324,-0.781250,1.557,-2.893,0.321,31.36
2026-02-12 18:12:53.335,65.200,0.324463,0.501953,-0.778076,1.771,-2.740,0.145,31.56
2026-02-12 18:12:53.435,65.300,0.322754,0.509521,-0.779297,1.863,-2.359,0.321,31.51
2026-02-12 18:12:53.535,65.400,0.322754,0.504883,-0.777588,1.893,-2.740,0.237,31.46
2026-02-12 18:12:53.635,65.500,0.324463,0.505859,-0.780273,2.000,-2.725,0.336,31.32
2026-02-12 18:12:53.735,65.600,0.319580,0.505615,-0.782715,1.718,-2.840,0.336,31.76
2026-02-12 18:12:53.835,65.700,0.324219,0.507324,-0.778320,1.695,-2.687,0.221,31.51
2026-02-12 18:12:53.935,65.800,0.326660,0.504883,-0.778809,1.687,-2.763,0.191,31.36
2026-02-12 18:12:54.035,65.900,0.321045,0.504639,-0.776855,1.656,-2.908,0.267,31.36
2026-02-12 18:12:54.135,66.000,0.326172,0.508301,-0.779541,1.672,-2.733,0.191,31.66
2026-02-12 18:12:54.235,66.100,0.319336,0.506104,-0.780029,1.718,-2.534,0.084,31.66
2026-02-12 18:12:54.335,66.200,0.321533,0.507812,-0.780029,1.672,-2.817,0.435,31.66
2026-02-12 18:12:54.435,66.300,0.324951,0.505859,-0.778809,1.550,-2.695,0.458,31.66
2026-02-12 18:12:54.535,66.400,0.324463,0.509033,-0.779053,1.710,-2.779,0.191,31.71
2026-02-12 18:12:54.635,66.500,0.326172,0.505371,-0.779541,1.870,-2.588,0.382,31.32
2026-02-12 18:12:54.735,66.600,0.322998,0.504639,-0.780518,1.771,-2.840,0.427,31.71
2026-02-12 18:12:54.835,66.700,0.323242,0.506592,-0.778564,1.679,-2.656,0.382,31.71
2026-02-12 18:12:54.935,66.800,0.322754,0.509033,-0.783447,1.893,-2.878,0.427,31.36
2026-02-12 18:12:55.035,66.900,0.325195,0.511963,-0.779541,1.687,-2.626,0.260,31.51
2026-02-12 18:12:55.135,67.000,0.322021,0.505615,-0.780273,1.656,-3.145,0.221,31.36
2026-02-12 18:12:55.235,67.100,0.324463,0.507324,-0.778076,1.779,-3.023,0.344,31.32
2026-02-12 18:12:55.335,67.200,0.323242,0.506836,-0.777588,1.603,-2.740,0.504,31.56
2026-02-12 18:12:55.435,67.300,0.324463,0.507568,-0.775391,1.649,-2.733,0.458,31.46
2026-02-12 18:12:55.535,67.400,0.320801,0.508301,-0.774170,1.611,-2.962,0.252,31.32
2026-02-12 18:12:55.635,67.500,0.322998,0.507080,-0.779541,1.748,-2.939,0.305,31.66
2026-02-12 18:12:55.737,67.602,0.324463,0.510498,-0.775635,1.565,-2.863,-0.092,31.46
2026-02-12 18:12:55.835,67.700,0.323486,0.506104,-0.774658,1.931,-2.908,0.405,31.51
2026-02-12 18:12:55.935,67.800,0.320312,0.509277,-0.778076,1.710,-2.885,0.183,31.51
2026-02-12 18:12:56.035,67.900,0.324463,0.507568,-0.778076,1.840,-2.802,0.412,31.66
2026-02-12 18:12:56.135,68.000,0.326660,0.508057,-0.787109,1.809,-2.939,0.389,31.56
2026-02-12 18:12:56.235,68.100,0.323242,0.509033,-0.778564,1.557,-2.901,0.328,31.66
2026-02-12 18:12:56.335,68.200,0.321289,0.505615,-0.778809,2.000,-2.863,0.290,31.46
2026-02-12 18:12:56.435,68.300,0.324463,0.507080,-0.774414,2.000,-2.908,0.092,31.36
2026-02-12 18:12:56.535,68.400,0.321289,0.510254,-0.778564,1.718,-3.206,0.053,31.36
2026-02-12 18:12:56.635,68.500,0.325439,0.508545,-0.774658,1.672,-2.672,0.336,31.51
2026-02-12 18:12:56.735,68.600,0.321289,0.506104,-0.773438,1.870,-3.252,0.122,31.56
2026-02-12 18:12:56.835,68.700,0.325439,0.509766,-0.772217,1.595,-2.824,0.313,31.36
2026-02-12 18:12:56.935,68.800,0.323975,0.509277,-0.778076,1.527,-3.069,0.244,31.22
2026-02-12 18:12:57.035,68.900,0.320557,0.506836,-0.774902,1.603,-2.863,0.321,31.17
2026-02-12 18:12:57.135,69.000,0.322266,0.509033,-0.774170,1.389,-2.893,0.359,31.51
2026-02-12 18:12:57.235,69.100,0.324951,0.506836,-0.777100,1.550,-2.740,0.405,31.32
2026-02-12 18:12:57.335,69.200,0.325439,0.502686,-0.777588,1.786,-2.740,0.389,31.36
2026-02-12 18:12:57.435,69.300,0.323730,0.507568,-0.778076,2.000,-3.053,0.229,31.56
2026-02-12 18:12:57.535,69.400,0.322754,0.509521,-0.779053,1.939,-3.237,0.389,31.76
2026-02-12 18:12:57.635,69.500,0.322754,0.505859,-0.779053,1.496,-2.672,0.573,31.66
2026-02-12 18:12:57.735,69.600,0.322754,0.504883,-0.771484,1.656,-2.687,0.198,31.46
2026-02-12 18:12:57.835,69.700,0.319580,0.503174,-0.780762,1.573,-2.855,0.229,31.51
2026-02-12 18:12:57.935,69.800,0.324707,0.507324,-0.781738,1.695,-2.763,-0.115,31.32
2026-02-12 18:12:58.035,69.900,0.322998,0.510986,-0.780762,1.794,-2.656,0.015,31.36
2026-02-12 18:12:58.135,70.000,0.320557,0.510010,-0.781982,2.015,-3.038,0.298,31.66
2026-02-12 18:12:58.235,70.100,0.321533,0.507568,-0.782715,1.420,-2.992,0.137,31.56
2026-02-12 18:12:58.335,70.200,0.321289,0.506104,-0.776855,1.412,-2.672,0.183,31.32
2026-02-12 18:12:58.435,70.300,0.320801,0.505371,-0.775146,1.763,-2.695,0.267,31.66
2026-02-12 18:12:58.535,70.400,0.322021,0.504639,-0.774170,1.908,-2.924,0.168,31.32
2026-02-12 18:12:58.635,70.500,0.322754,0.505371,-0.778809,1.443,-2.908,0.443,31.32
2026-02-12 18:12:58.735,70.600,0.319580,0.507080,-0.777100,1.763,-2.924,0.160,31.51
2026-02-12 18:12:58.835,70.700,0.323975,0.508789,-0.779053,1.748,-2.626,0.191,31.71
2026-02-12 18:12:58.935,70.800,0.323730,0.510010,-0.783447,1.832,-2.893,0.206,31.51
2026-02-12 18:12:59.035,70.900,0.324463,0.507812,-0.781250,1.588,-2.786,0.160,31.36
2026-02-12 18:12:59.135,71.000,0.322021,0.508057,-0.777832,1.573,-2.611,0.298,31.32
2026-02-12 18:12:59.235,71.100,0.323975,0.505615,-0.775879,1.733,-2.878,0.092,31.46
2026-02-12 18:12:59.335,71.200,0.320068,0.505859,-0.777100,1.817,-2.908,0.229,31.56
2026-02-12 18:12:59.435,71.300,0.322510,0.507324,-0.780029,1.618,-2.771,0.489,31.66
2026-02-12 18:12:59.535,71.400,0.320312,0.502441,-0.773438,1.985,-2.916,0.321,31.71
2026-02-12 18:12:59.635,71.500,0.324707,0.504395,-0.780762,1.771,-3.046,0.237,31.46
2026-02-12 18:12:59.735,71.600,0.320068,0.509521,-0.776123,1.779,-2.908,0.076,31.51
2026-02-12 18:12:59.835,71.700,0.322754,0.502197,-0.772705,1.817,-2.718,0.336,31.22
2026-02-12 18:12:59.935,71.800,0.323975,0.508057,-0.777588,1.435,-3.023,0.031,31.46
2026-02-12 18:13:00.035,71.900,0.324707,0.507568,-0.782715,1.527,-2.779,0.359,31.32
2026-02-12 18:13:00.135,72.000,0.326904,0.508789,-0.777588,1.725,-2.672,0.450,31.46
2026-02-12 18:13:00.235,72.100,0.324951,0.504150,-0.777588,1.740,-3.046,-0.031,31.56
2026-02-12 18:13:00.335,72.200,0.323975,0.512939,-0.776123,1.809,-2.817,0.305,31.66
2026-02-12 18:13:00.435,72.300,0.322266,0.505615,-0.778320,1.519,-2.985,0.504,31.71
2026-02-12 18:13:00.535,72.400,0.322754,0.505371,-0.776855,1.847,-2.947,0.092,31.56
2026-02-12 18:13:00.635,72.500,0.319824,0.505371,-0.781738,1.565,-2.656,0.351,31.22
2026-02-12 18:13:00.735,72.600,0.325684,0.508789,-0.776367,1.649,-2.840,0.504,31.36
2026-02-12 18:13:00.835,72.700,0.320312,0.510742,-0.773438,1.893,-2.870,0.321,31.51
2026-02-12 18:13:00.935,72.800,0.325928,0.505615,-0.780762,1.649,-3.000,0.389,31.51
2026-02-12 18:13:01.035,72.900,0.322754,0.508057,-0.781982,1.756,-2.519,0.252,31.51
2026-02-12 18:13:01.135,73.000,0.324219,0.510498,-0.778809,1.626,-2.977,0.206,31.76
2026-02-12 18:13:01.235,73.100,0.325684,0.505371,-0.775635,1.817,-3.229,0.160,31.51
2026-02-12 18:13:01.335,73.200,0.327148,0.505371,-0.774902,1.710,-2.702,0.137,31.66
2026-02-12 18:13:01.435,73.300,0.324463,0.507812,-0.778809,1.618,-2.656,0.076,31.36
2026-02-12 18:13:01.535,73.400,0.321289,0.508545,-0.779541,1.794,-3.038,0.305,31.17
2026-02-12 18:13:01.635,73.500,0.323975,0.505615,-0.781982,1.916,-2.893,0.336,31.56
2026-02-12 18:13:01.735,73.600,0.326172,0.506836,-0.780518,1.611,-2.695,0.061,31.32
2026-02-12 18:13:01.835,73.700,0.322998,0.508545,-0.775635,1.870,-2.832,0.664,31.51
2026-02-12 18:13:01.935,73.800,0.322266,0.504639,-0.775635,1.618,-2.763,0.206,31.32
2026-02-12 18:13:02.035,73.900,0.324707,0.508545,-0.775391,1.779,-2.863,0.420,31.66
2026-02-12 18:13:02.135,74.000,0.319824,0.506348,-0.778809,1.664,-2.656,0.099,31.51
2026-02-12 18:13:02.235,74.100,0.324463,0.502686,-0.776855,1.702,-2.992,0.092,31.51
2026-02-12 18:13:02.335,74.200,0.319580,0.507080,-0.779541,1.756,-2.779,0.321,31.76
2026-02-12 18:13:02.435,74.300,0.324951,0.508789,-0.779053,1.832,-2.603,0.275,31.32
2026-02-12 18:13:02.535,74.400,0.325439,0.505615,-0.777588,1.763,-2.870,0.099,31.32
2026-02-12 18:13:02.635,74.500,0.320557,0.505127,-0.781494,1.565,-2.908,0.260,31.32
2026-02-12 18:13:02.735,74.600,0.322021,0.506836,-0.774902,1.878,-2.557,0.191,31.56
2026-02-12 18:13:02.835,74.700,0.324951,0.508301,-0.776367,1.870,-2.771,0.489,31.36
2026-02-12 18:13:02.935,74.800,0.323730,0.504883,-0.778320,1.756,-3.031,0.282,31.51
2026-02-12 18:13:03.035,74.900,0.321289,0.505127,-0.776611,1.763,-2.756,0.160,31.32
2026-02-12 18:13:03.135,75.000,0.323975,0.507568,-0.777832,1.748,-2.802,0.206,31.51
2026-02-12 18:13:03.235,75.100,0.323730,0.508057,-0.776123,1.794,-2.695,0.504,31.71
2026-02-12 18:13:03.335,75.200,0.322510,0.510254,-0.784912,1.748,-2.748,0.137,31.51
2026-02-12 18:13:03.435,75.300,0.322754,0.508789,-0.775146,1.985,-2.748,0.450,31.32
2026-02-12 18:13:03.535,75.400,0.320312,0.504883,-0.779053,1.870,-2.855,0.206,31.46
2026-02-12 18:13:03.635,75.500,0.321777,0.506348,-0.781250,1.687,-2.840,0.282,31.56
2026-02-12 18:13:03.735,75.600,0.324707,0.506592,-0.772217,1.794,-2.916,0.328,31.32
2026-02-12 18:13:03.835,75.700,0.323730,0.508057,-0.784912,1.580,-2.817,0.313,31.36
2026-02-12 18:13:03.935,75.800,0.320557,0.505371,-0.781738,1.725,-2.870,0.473,31.32
2026-02-12 18:13:04.037,75.903,0.323730,0.508789,-0.777100,1.702,-2.695,0.366,31.32
2026-02-12 18:13:04.135,76.000,0.321533,0.507324,-0.777832,1.763,-2.832,-0.115,31.46
2026-02-12 18:13:04.237,76.103,0.320801,0.504395,-0.776611,1.473,-2.779,0.206,31.36
2026-02-12 18:13:04.335,76.200,0.326172,0.510742,-0.773682,1.519,-2.649,0.366,31.56
2026-02-12 18:13:04.435,76.300,0.322021,0.506348,-0.777832,1.542,-2.718,0.412,31.56
2026-02-12 18:13:04.535,76.400,0.326172,0.507080,-0.783936,1.748,-2.809,0.359,31.17
2026-02-12 18:13:04.635,76.500,0.326660,0.506592,-0.774170,1.626,-2.794,0.191,31.71
2026-02-12 18:13:04.735,76.600,0.325684,0.505615,-0.780518,1.771,-2.756,0.267,31.56
2026-02-12 18:13:04.837,76.700,0.323242,0.503906,-0.780273,1.794,-2.466,0.198,31.51
2026-02-12 18:13:04.935,76.800,0.322754,0.506836,-0.777588,1.901,-2.885,0.504,31.36
2026-02-12 18:13:05.035,76.900,0.321045,0.507080,-0.783691,1.641,-2.779,0.183,31.32
2026-02-12 18:13:05.135,77.000,0.324463,0.510010,-0.780518,1.641,-2.863,0.397,31.46
2026-02-12 18:13:05.235,77.100,0.320801,0.505127,-0.785645,1.695,-3.000,0.374,31.32
2026-02-12 18:13:05.335,77.200,0.322998,0.505371,-0.775879,1.458,-2.885,0.282,31.51
2026-02-12 18:13:05.435,77.300,0.320801,0.508057,-0.778809,1.802,-2.870,0.366,31.32
2026-02-12 18:13:05.535,77.400,0.324951,0.505859,-0.782227,1.634,-2.725,0.450,31.56
2026-02-12 18:13:05.635,77.500,0.322754,0.506836,-0.779053,1.710,-2.931,0.275,31.36
2026-02-12 18:13:05.735,77.600,0.323242,0.507568,-0.771240,1.618,-2.908,0.382,31.46
2026-02-12 18:13:05.835,77.700,0.323242,0.506104,-0.781982,2.015,-2.863,-0.145,31.32
2026-02-12 18:13:05.935,77.800,0.322266,0.507080,-0.777100,1.763,-2.748,0.214,31.56
2026-02-12 18:13:06.035,77.900,0.324463,0.506104,-0.773193,1.687,-2.870,0.076,31.36
2026-02-12 18:13:06.135,78.000,0.323730,0.503906,-0.775879,1.580,-2.931,0.206,31.36
2026-02-12 18:13:06.235,78.100,0.322266,0.506592,-0.783203,1.748,-2.954,0.351,31.71
2026-02-12 18:13:06.335,78.200,0.323730,0.506592,-0.778564,1.656,-2.977,0.000,31.56
2026-02-12 18:13:06.435,78.300,0.322266,0.507324,-0.778809,1.565,-2.893,0.206,31.56
2026-02-12 18:13:06.535,78.400,0.323730,0.507568,-0.780273,1.779,-3.061,0.351,31.32
2026-02-12 18:13:06.635,78.500,0.326904,0.505371,-0.780029,1.779,-2.802,0.053,31.36
2026-02-12 18:13:06.735,78.600,0.326416,0.504150,-0.783447,1.824,-2.947,0.328,31.71
2026-02-12 18:13:06.835,78.700,0.318359,0.503418,-0.778809,1.679,-2.939,0.427,31.76
2026-02-12 18:13:06.935,78.800,0.325439,0.508057,-0.776855,1.580,-2.786,0.160,31.51
2026-02-12 18:13:07.035,78.900,0.323730,0.509277,-0.780273,1.840,-2.870,0.061,31.56
2026-02-12 18:13:07.135,79.000,0.319824,0.507568,-0.780273,1.954,-2.893,0.137,31.76
2026-02-12 18:13:07.235,79.100,0.323486,0.509277,-0.777588,1.573,-2.710,0.374,31.36
2026-02-12 18:13:07.335,79.200,0.324951,0.508789,-0.777588,1.656,-2.969,0.382,31.66
2026-02-12 18:13:07.435,79.300,0.324219,0.506836,-0.775146,1.473,-2.656,0.321,31.51
2026-02-12 18:13:07.535,79.400,0.322510,0.506836,-0.776611,1.702,-2.794,0.237,31.66
2026-02-12 18:13:07.635,79.500,0.326416,0.505127,-0.781250,1.908,-2.977,0.069,31.32
2026-02-12 18:13:07.735,79.600,0.319092,0.507812,-0.778809,1.565,-2.664,0.076,31.71
2026-02-12 18:13:07.835,79.700,0.325928,0.509521,-0.778564,1.542,-2.763,0.305,31.32
2026-02-12 18:13:07.935,79.800,0.325439,0.507080,-0.780029,1.817,-2.748,0.519,31.66
2026-02-12 18:13:08.035,79.900,0.322510,0.506836,-0.776367,1.885,-2.763,0.374,31.46
2026-02-12 18:13:08.135,80.000,0.323730,0.506104,-0.774902,1.847,-2.817,0.328,31.66
2026-02-12 18:13:08.235,80.100,0.324219,0.506836,-0.774658,1.603,-2.947,0.130,31.36
2026-02-12 18:13:08.335,80.200,0.323975,0.508301,-0.780273,1.740,-2.702,0.115,31.56
2026-02-12 18:13:08.435,80.300,0.319580,0.504639,-0.775391,1.748,-2.885,0.191,31.22
2026-02-12 18:13:08.535,80.400,0.324219,0.506104,-0.779785,1.702,-2.847,0.282,31.36
2026-02-12 18:13:08.635,80.500,0.319092,0.507080,-0.780029,1.687,-2.786,0.427,31.66
2026-02-12 18:13:08.735,80.600,0.324219,0.504395,-0.784424,1.969,-2.924,0.366,31.36
2026-02-12 18:13:08.835,80.700,0.321289,0.505859,-0.774658,1.603,-3.176,0.344,31.66
2026-02-12 18:13:08.935,80.800,0.325195,0.510254,-0.781250,1.969,-2.878,0.412,31.32
2026-02-12 18:13:09.035,80.900,0.322266,0.510742,-0.779297,1.786,-2.916,0.115,31.56
2026-02-12 18:13:09.135,81.000,0.323242,0.507568,-0.777588,1.519,-2.901,0.191,31.51
2026-02-12 18:13:09.235,81.100,0.327881,0.504639,-0.775391,1.611,-3.015,0.244,31.36
2026-02-12 18:13:09.335,81.200,0.323975,0.507812,-0.778076,1.634,-2.504,0.450,31.17
2026-02-12 18:13:09.435,81.300,0.324707,0.506104,-0.785645,1.924,-2.908,0.557,31.17
2026-02-12 18:13:09.535,81.400,0.324219,0.507324,-0.775879,1.763,-2.656,0.344,31.51
2026-02-12 18:13:09.635,81.500,0.325684,0.506104,-0.784668,1.672,-2.718,0.191,31.66
2026-02-12 18:13:09.735,81.600,0.320801,0.506836,-0.779785,1.466,-2.779,-0.015,31.51
2026-02-12 18:13:09.835,81.700,0.322266,0.505859,-0.781494,1.885,-2.672,0.344,31.36
2026-02-12 18:13:09.935,81.800,0.327881,0.506348,-0.780518,1.649,-2.626,-0.015,31.51
2026-02-12 18:13:10.035,81.900,0.324951,0.505371,-0.776855,1.611,-2.893,0.298,31.66
2026-02-12 18:13:10.135,82.000,0.326416,0.505859,-0.780518,1.534,-2.969,0.130,31.46
2026-02-12 18:13:10.235,82.100,0.322510,0.508057,-0.783447,1.267,-2.916,0.130,31.66
2026-02-12 18:13:10.335,82.200,0.320801,0.508545,-0.779297,1.664,-2.908,0.023,31.51
2026-02-12 18:13:10.435,82.300,0.322266,0.507080,-0.781250,1.626,-2.664,-0.191,31.51
2026-02-12 18:13:10.535,82.400,0.320312,0.506836,-0.780029,1.351,-2.763,-0.038,31.66
2026-02-12 18:13:10.635,82.500,0.322998,0.505859,-0.780762,1.603,-2.901,0.473,31.36
2026-02-12 18:13:10.735,82.600,0.323486,0.507812,-0.780273,1.550,-2.794,0.046,31.46
2026-02-12 18:13:10.835,82.700,0.318604,0.504639,-0.775146,1.779,-2.893,0.298,31.66
2026-02-12 18:13:10.935,82.800,0.321045,0.504395,-0.777588,1.756,-2.809,0.137,31.46
2026-02-12 18:13:11.035,82.900,0.321777,0.507812,-0.777588,1.557,-2.496,0.366,31.51
2026-02-12 18:13:11.135,83.000,0.325928,0.504639,-0.780029,1.847,-3.038,0.405,31.36
2026-02-12 18:13:11.235,83.100,0.320068,0.507812,-0.779541,1.649,-2.985,0.237,31.36
2026-02-12 18:13:11.335,83.200,0.320557,0.505859,-0.781982,1.458,-2.802,0.405,31.56
2026-02-12 18:13:11.435,83.300,0.322510,0.511475,-0.783203,1.458,-2.855,0.305,31.51
2026-02-12 18:13:11.535,83.400,0.322998,0.506836,-0.779785,1.504,-2.962,0.580,31.51
2026-02-12 18:13:11.635,83.500,0.327148,0.507568,-0.775635,1.748,-2.725,0.305,31.36
2026-02-12 18:13:11.735,83.600,0.326416,0.506836,-0.779053,1.557,-2.931,0.229,31.51
2026-02-12 18:13:11.835,83.700,0.321533,0.507568,-0.783691,1.794,-2.985,0.244,31.66
2026-02-12 18:13:11.935,83.800,0.324219,0.509521,-0.777344,1.756,-2.908,0.252,31.51
2026-02-12 18:13:12.035,83.900,0.324463,0.505371,-0.779053,1.779,-2.977,0.092,31.51
2026-02-12 18:13:12.135,84.000,0.324707,0.506836,-0.774170,1.763,-2.855,0.321,31.76
2026-02-12 18:13:12.235,84.100,0.325684,0.506592,-0.780273,1.634,-2.779,0.122,31.56
2026-02-12 18:13:12.335,84.200,0.323730,0.510498,-0.782227,1.595,-2.656,0.321,31.46
2026-02-12 18:13:12.435,84.300,0.325439,0.507324,-0.783447,1.855,-2.702,0.229,31.51
2026-02-12 18:13:12.535,84.400,0.321533,0.507324,-0.782715,1.702,-2.718,0.481,31.51
2026-02-12 18:13:12.635,84.500,0.320801,0.508545,-0.774902,2.008,-2.985,0.420,31.46
2026-02-12 18:13:12.735,84.600,0.324951,0.508057,-0.776367,1.550,-3.115,0.382,31.66
2026-02-12 18:13:12.835,84.700,0.323730,0.510010,-0.774902,1.664,-2.855,0.069,31.36
2026-02-12 18:13:12.935,84.800,0.322754,0.504395,-0.779053,1.626,-2.847,0.275,31.51
2026-02-12 18:13:13.035,84.900,0.322510,0.508545,-0.773438,1.481,-2.939,0.382,31.51
2026-02-12 18:13:13.135,85.000,0.324463,0.507324,-0.779053,1.718,-3.000,0.374,31.36
2026-02-12 18:13:13.235,85.100,0.322266,0.505127,-0.773682,1.473,-2.786,0.351,31.71
2026-02-12 18:13:13.335,85.200,0.324219,0.504395,-0.773438,1.878,-2.832,0.275,31.71
2026-02-12 18:13:13.435,85.300,0.322510,0.502686,-0.779297,1.611,-3.000,0.107,31.66
2026-02-12 18:13:13.535,85.400,0.319336,0.509766,-0.779785,1.626,-2.855,0.275,31.36
2026-02-12 18:13:13.635,85.500,0.320557,0.510742,-0.775879,1.557,-2.809,0.183,31.46
2026-02-12 18:13:13.735,85.600,0.322510,0.507568,-0.778076,1.710,-2.748,0.290,31.66
2026-02-12 18:13:13.835,85.700,0.321777,0.505127,-0.779297,1.603,-2.466,0.153,31.66
2026-02-12 18:13:13.935,85.800,0.320068,0.501953,-0.782471,1.672,-2.992,0.305,31.46
2026-02-12 18:13:14.035,85.900,0.323242,0.506104,-0.780029,1.847,-2.840,0.427,31.51
2026-02-12 18:13:14.135,86.000,0.323730,0.509277,-0.777344,1.695,-2.969,0.214,31.51
2026-02-12 18:13:14.235,86.100,0.321777,0.510010,-0.781494,1.725,-2.634,-0.023,31.36
2026-02-12 18:13:14.335,86.200,0.324707,0.507568,-0.772705,1.847,-2.733,0.344,31.66
2026-02-12 18:13:14.435,86.300,0.322754,0.503906,-0.779541,1.710,-2.901,0.557,31.51
2026-02-12 18:13:14.535,86.400,0.323975,0.504150,-0.777588,1.847,-2.908,0.573,31.56
2026-02-12 18:13:14.635,86.500,0.320801,0.508789,-0.773682,1.802,-2.939,0.290,31.66
2026-02-12 18:13:14.735,86.600,0.324707,0.508301,-0.773926,1.748,-2.977,0.626,31.51
2026-02-12 18:13:14.835,86.700,0.323242,0.507812,-0.779785,1.748,-3.130,0.260,31.32
2026-02-12 18:13:14.935,86.800,0.323486,0.508301,-0.782959,1.580,-2.794,0.313,31.56
2026-02-12 18:13:15.035,86.900,0.325439,0.510254,-0.778809,1.321,-2.802,0.191,31.66
2026-02-12 18:13:15.135,87.000,0.322754,0.504639,-0.777344,1.565,-3.038,0.237,31.32
2026-02-12 18:13:15.235,87.100,0.322266,0.509277,-0.779297,1.771,-2.863,0.382,31.22
2026-02-12 18:13:15.335,87.200,0.323730,0.507324,-0.773926,1.618,-2.985,0.443,31.36
2026-02-12 18:13:15.435,87.300,0.323242,0.506592,-0.782471,1.527,-2.763,0.282,31.51
2026-02-12 18:13:15.535,87.400,0.322266,0.506592,-0.779541,1.634,-2.824,0.359,31.51
2026-02-12 18:13:15.635,87.500,0.323975,0.505127,-0.774170,1.710,-2.557,0.336,31.32
2026-02-12 18:13:15.735,87.600,0.322266,0.508301,-0.781982,1.649,-2.687,0.405,31.46
2026-02-12 18:13:15.835,87.700,0.322998,0.507568,-0.776611,1.702,-2.885,0.023,31.46
2026-02-12 18:13:15.935,87.800,0.320801,0.508789,-0.775391,1.382,-2.885,0.641,31.51
2026-02-12 18:13:16.035,87.900,0.322754,0.505615,-0.776855,1.611,-2.840,0.511,31.66
2026-02-12 18:13:16.135,88.000,0.324707,0.507568,-0.777100,1.794,-2.878,0.198,31.56
2026-02-12 18:13:16.235,88.100,0.323975,0.504883,-0.778809,1.725,-2.870,0.542,31.32
2026-02-12 18:13:16.335,88.200,0.325195,0.505615,-0.777832,1.710,-2.878,0.336,31.46
2026-02-12 18:13:16.435,88.300,0.323242,0.509033,-0.781250,1.695,-2.870,0.122,31.66
2026-02-12 18:13:16.535,88.400,0.320068,0.507812,-0.776367,1.740,-2.985,0.107,31.71
2026-02-12 18:13:16.635,88.500,0.324219,0.504639,-0.774902,1.573,-2.466,0.183,31.46
2026-02-12 18:13:16.735,88.600,0.325684,0.506348,-0.776855,1.771,-2.832,0.168,31.36
2026-02-12 18:13:16.835,88.700,0.323486,0.507568,-0.774658,1.626,-2.756,0.542,31.51
2026-02-12 18:13:16.935,88.800,0.324219,0.508545,-0.777832,1.809,-3.046,0.374,31.36
2026-02-12 18:13:17.035,88.900,0.318848,0.508545,-0.777832,1.710,-2.794,0.519,31.51
2026-02-12 18:13:17.135,89.000,0.325928,0.508057,-0.785156,1.863,-3.038,0.359,31.46
2026-02-12 18:13:17.235,89.100,0.324463,0.506592,-0.778320,1.847,-2.695,0.168,31.36
2026-02-12 18:13:17.335,89.200,0.324951,0.507568,-0.774170,1.649,-3.069,0.137,31.12
2026-02-12 18:13:17.435,89.300,0.322510,0.507812,-0.778564,1.656,-2.855,0.252,31.36
2026-02-12 18:13:17.535,89.400,0.324951,0.510010,-0.774658,1.573,-2.786,0.282,31.46
2026-02-12 18:13:17.635,89.500,0.324219,0.506104,-0.777832,1.550,-3.061,0.305,31.51
2026-02-12 18:13:17.735,89.600,0.323975,0.507812,-0.777344,1.748,-2.733,0.405,31.66
2026-02-12 18:13:17.835,89.700,0.323242,0.506348,-0.778076,1.634,-2.901,0.176,31.36
2026-02-12 18:13:17.935,89.800,0.321533,0.506836,-0.777832,1.573,-2.802,0.260,31.32
2026-02-12 18:13:18.035,89.900,0.320068,0.510986,-0.773193,1.740,-2.847,0.023,31.36
2026-02-12 18:13:18.135,90.000,0.322266,0.505371,-0.781738,1.809,-2.916,0.435,31.51
2026-02-12 18:13:18.235,90.100,0.323730,0.510254,-0.779785,1.626,-2.947,0.359,31.71
2026-02-12 18:13:18.335,90.200,0.324219,0.504639,-0.775391,1.802,-2.779,0.282,31.56
2026-02-12 18:13:18.435,90.300,0.322754,0.506836,-0.773193,1.733,-2.939,0.206,31.36
2026-02-12 18:13:18.535,90.400,0.321533,0.509521,-0.772461,1.733,-3.038,0.489,31.46
2026-02-12 18:13:18.635,90.500,0.323486,0.503906,-0.778564,1.702,-2.763,0.282,31.32
2026-02-12 18:13:18.735,90.600,0.324219,0.509521,-0.779297,1.870,-2.634,-0.069,31.71
2026-02-12 18:13:18.835,90.700,0.320801,0.507812,-0.769287,1.702,-3.015,0.137,31.46
2026-02-12 18:13:18.935,90.800,0.323486,0.507568,-0.775635,1.427,-3.099,0.053,31.51
2026-02-12 18:13:19.035,90.900,0.323486,0.507812,-0.782959,1.763,-2.817,0.191,31.56
2026-02-12 18:13:19.135,91.000,0.324707,0.506104,-0.776611,1.824,-2.664,0.115,31.71
2026-02-12 18:13:19.235,91.100,0.320557,0.506104,-0.778564,1.763,-3.023,0.298,31.36
2026-02-12 18:13:19.335,91.200,0.324463,0.505127,-0.784912,1.870,-3.069,0.130,31.32
2026-02-12 18:13:19.435,91.300,0.321289,0.507080,-0.776855,1.565,-2.718,0.290,31.46
2026-02-12 18:13:19.535,91.400,0.324951,0.507812,-0.773438,1.588,-2.817,0.107,31.46
2026-02-12 18:13:19.635,91.500,0.323486,0.507324,-0.771484,1.794,-2.679,0.290,31.32
2026-02-12 18:13:19.735,91.600,0.324219,0.505615,-0.781738,1.580,-2.756,0.198,31.36
2026-02-12 18:13:19.835,91.700,0.326172,0.507324,-0.774414,1.779,-2.718,0.076,31.46
2026-02-12 18:13:19.935,91.800,0.321533,0.507080,-0.772461,1.473,-2.641,0.183,31.66
2026-02-12 18:13:20.035,91.900,0.321533,0.507812,-0.776855,1.656,-3.008,0.527,31.51
2026-02-12 18:13:20.135,92.000,0.321289,0.507324,-0.776123,1.481,-2.779,0.237,31.32
2026-02-12 18:13:20.235,92.100,0.326172,0.505615,-0.776123,1.863,-2.931,-0.084,31.66
2026-02-12 18:13:20.335,92.200,0.324707,0.504883,-0.778809,1.786,-2.786,0.344,31.46
2026-02-12 18:13:20.435,92.300,0.321777,0.507324,-0.779297,1.580,-2.718,0.420,31.51
2026-02-12 18:13:20.535,92.400,0.322998,0.510010,-0.778320,1.924,-2.870,0.237,31.66
2026-02-12 18:13:20.635,92.500,0.321533,0.507080,-0.775146,1.878,-2.611,-0.076,31.22
2026-02-12 18:13:20.735,92.600,0.320557,0.505127,-0.771484,1.908,-2.672,0.618,31.56
2026-02-12 18:13:20.835,92.700,0.324219,0.506592,-0.781982,1.687,-2.664,0.427,31.66
2026-02-12 18:13:20.935,92.800,0.320557,0.509766,-0.776855,1.702,-2.931,0.229,31.32
2026-02-12 18:13:21.035,92.900,0.321533,0.506592,-0.771973,1.840,-2.817,0.099,31.46
2026-02-12 18:13:21.135,93.000,0.319824,0.506348,-0.776855,1.786,-3.153,0.145,31.51
2026-02-12 18:13:21.235,93.100,0.322998,0.503906,-0.780518,1.901,-2.847,0.282,31.51
2026-02-12 18:13:21.335,93.200,0.320801,0.510254,-0.784180,1.618,-3.053,0.557,31.36
2026-02-12 18:13:21.435,93.300,0.323486,0.505371,-0.776855,1.641,-2.962,0.466,31.46
2026-02-12 18:13:21.535,93.400,0.325439,0.511475,-0.777100,1.527,-2.534,0.015,31.66
2026-02-12 18:13:21.635,93.500,0.319824,0.504639,-0.778076,1.748,-2.931,0.229,31.51
2026-02-12 18:13:21.735,93.600,0.321289,0.507080,-0.780029,1.771,-2.664,0.336,31.51
2026-02-12 18:13:21.835,93.700,0.324951,0.504639,-0.778564,1.679,-2.931,0.031,31.66
2026-02-12 18:13:21.935,93.800,0.321533,0.506348,-0.778809,1.756,-3.023,0.366,31.46
2026-02-12 18:13:22.035,93.900,0.325439,0.508545,-0.780518,1.641,-2.855,0.458,31.56
2026-02-12 18:13:22.135,94.000,0.323975,0.505859,-0.784180,1.794,-2.969,0.160,31.22
2026-02-12 18:13:22.235,94.100,0.322510,0.504395,-0.777832,1.618,-2.931,0.160,31.51
2026-02-12 18:13:22.335,94.200,0.324219,0.506104,-0.779053,1.695,-2.954,0.290,31.51
2026-02-12 18:13:22.435,94.300,0.326416,0.507324,-0.776123,1.718,-3.115,0.359,31.66
2026-02-12 18:13:22.535,94.400,0.320312,0.508057,-0.782471,1.779,-2.832,0.191,31.36
2026-02-12 18:13:22.635,94.500,0.323730,0.503174,-0.779785,1.733,-2.824,0.344,31.51
2026-02-12 18:13:22.735,94.600,0.322998,0.508301,-0.775879,1.580,-2.863,0.115,31.66
2026-02-12 18:13:22.835,94.700,0.328125,0.508545,-0.779785,1.580,-2.947,0.305,31.36
2026-02-12 18:13:22.935,94.800,0.325439,0.507568,-0.786621,1.687,-2.481,0.344,31.51
2026-02-12 18:13:23.035,94.900,0.323242,0.508301,-0.774902,1.626,-2.718,0.244,31.36
2026-02-12 18:13:23.135,95.000,0.319824,0.508301,-0.782959,1.611,-2.718,0.267,31.36
2026-02-12 18:13:23.235,95.100,0.325684,0.507324,-0.778564,1.656,-2.840,0.328,31.32
2026-02-12 18:13:23.335,95.200,0.321777,0.510742,-0.777588,1.672,-2.656,0.206,31.66
2026-02-12 18:13:23.435,95.300,0.324219,0.509521,-0.774902,1.458,-2.733,0.557,31.32
2026-02-12 18:13:23.535,95.400,0.328125,0.506836,-0.781494,1.641,-2.901,0.176,31.71
2026-02-12 18:13:23.635,95.500,0.324951,0.507568,-0.777588,1.771,-2.870,0.336,31.56
2026-02-12 18:13:23.735,95.600,0.325195,0.508301,-0.774902,1.656,-2.893,0.168,31.36
2026-02-12 18:13:23.835,95.700,0.325439,0.509766,-0.780273,1.824,-2.763,0.206,31.51
2026-02-12 18:13:23.935,95.800,0.324951,0.508057,-0.778076,1.664,-2.840,0.313,31.66
2026-02-12 18:13:24.035,95.900,0.325928,0.507324,-0.779053,1.534,-2.992,0.244,31.56
2026-02-12 18:13:24.135,96.000,0.323486,0.506836,-0.781494,1.626,-2.901,0.260,31.66
2026-02-12 18:13:24.235,96.100,0.320312,0.508301,-0.781006,1.634,-2.916,0.458,31.51
2026-02-12 18:13:24.335,96.200,0.321045,0.504150,-0.772461,1.863,-3.122,0.313,31.71
2026-02-12 18:13:24.435,96.300,0.321533,0.505127,-0.777588,1.626,-2.618,0.282,31.32
2026-02-12 18:13:24.535,96.400,0.324463,0.506592,-0.788330,1.702,-2.626,0.611,31.66
2026-02-12 18:13:24.635,96.500,0.322266,0.504883,-0.772705,1.718,-2.794,0.298,31.46
2026-02-12 18:13:24.735,96.600,0.323486,0.507080,-0.779053,1.748,-2.939,0.550,31.36
2026-02-12 18:13:24.835,96.700,0.320312,0.506836,-0.775879,1.557,-2.840,0.298,31.32
2026-02-12 18:13:24.935,96.800,0.319092,0.508789,-0.779541,1.802,-2.824,0.198,31.32
2026-02-12 18:13:25.035,96.900,0.321533,0.505127,-0.783203,1.664,-2.893,0.382,31.22
2026-02-12 18:13:25.135,97.000,0.321533,0.503174,-0.779785,1.840,-2.824,0.198,31.56
2026-02-12 18:13:25.235,97.100,0.322021,0.506348,-0.777344,1.649,-2.893,0.137,31.66
2026-02-12 18:13:25.335,97.200,0.324951,0.507324,-0.772217,1.550,-2.832,0.504,31.71
2026-02-12 18:13:25.435,97.300,0.322510,0.504639,-0.778320,1.626,-2.832,0.183,31.46
2026-02-12 18:13:25.535,97.400,0.323486,0.506592,-0.775391,1.809,-2.878,0.290,31.85
2026-02-12 18:13:25.635,97.500,0.319092,0.508301,-0.775635,1.496,-2.870,0.412,31.66
2026-02-12 18:13:25.735,97.600,0.323730,0.507568,-0.779541,1.679,-2.908,0.198,31.32
2026-02-12 18:13:25.835,97.700,0.326416,0.505127,-0.778564,1.618,-2.649,0.267,31.51
2026-02-12 18:13:25.935,97.800,0.324219,0.505615,-0.774658,1.679,-2.733,0.206,31.36
2026-02-12 18:13:26.035,97.900,0.321289,0.511963,-0.778809,1.458,-2.779,0.389,31.51
2026-02-12 18:13:26.135,98.000,0.320068,0.505615,-0.785156,1.649,-3.092,0.053,31.46
2026-02-12 18:13:26.235,98.100,0.322998,0.508301,-0.778564,1.641,-2.710,0.298,31.71
2026-02-12 18:13:26.335,98.200,0.320801,0.506104,-0.778076,1.550,-2.756,0.313,31.51
2026-02-12 18:13:26.435,98.300,0.322754,0.507568,-0.777832,1.649,-2.954,0.443,31.36
2026-02-12 18:13:26.535,98.400,0.323486,0.507080,-0.776611,1.458,-2.962,-0.107,31.56
2026-02-12 18:13:26.635,98.500,0.319824,0.503906,-0.782471,1.527,-2.885,0.435,31.56
2026-02-12 18:13:26.735,98.600,0.326416,0.508057,-0.779297,1.664,-2.931,0.511,31.51
2026-02-12 18:13:26.835,98.700,0.325684,0.505859,-0.777100,1.534,-2.718,0.389,31.66
2026-02-12 18:13:26.935,98.800,0.320312,0.504639,-0.770264,1.618,-2.847,0.191,31.66
2026-02-12 18:13:27.035,98.900,0.314941,0.503174,-0.780029,1.718,-2.878,0.519,31.46
2026-02-12 18:13:27.135,99.000,0.325195,0.510986,-0.780273,1.817,-2.710,0.183,31.66
2026-02-12 18:13:27.235,99.100,0.326660,0.506348,-0.774170,1.733,-2.977,0.198,31.66
2026-02-12 18:13:27.335,99.200,0.319824,0.507812,-0.779541,1.565,-2.794,0.115,31.76
2026-02-12 18:13:27.435,99.300,0.323242,0.506104,-0.776855,2.008,-3.023,0.122,31.51
2026-02-12 18:13:27.535,99.400,0.321777,0.504150,-0.787598,1.679,-2.794,0.466,31.51
2026-02-12 18:13:27.635,99.500,0.323242,0.512695,-0.778076,1.855,-2.870,0.038,31.12
2026-02-12 18:13:27.735,99.600,0.324219,0.505371,-0.776855,1.664,-2.847,0.634,31.51
2026-02-12 18:13:27.835,99.700,0.322266,0.509521,-0.779053,2.023,-2.718,0.107,31.56
2026-02-12 18:13:27.935,99.800,0.321777,0.506348,-0.778809,1.740,-2.733,0.229,31.56
2026-02-12 18:13:28.035,99.900,0.321777,0.505615,-0.784912,1.664,-2.885,0.275,31.66
2026-02-12 18:13:28.135,100.000,0.323975,0.507812,-0.774414,1.794,-2.878,0.260,31.66
2026-02-12 18:13:28.235,100.100,0.320557,0.507568,-0.771484,1.710,-2.702,0.427,31.46
2026-02-12 18:13:28.335,100.200,0.321533,0.507324,-0.779541,1.565,-2.740,0.298,31.51
2026-02-12 18:13:28.435,100.300,0.320068,0.504395,-0.779053,1.794,-2.748,0.153,31.71
2026-02-12 18:13:28.535,100.400,0.322510,0.507812,-0.778076,1.832,-2.847,0.275,31.66
2026-02-12 18:13:28.635,100.500,0.322021,0.505615,-0.779053,1.588,-2.931,0.183,31.51
2026-02-12 18:13:28.735,100.600,0.320801,0.506104,-0.772461,1.710,-2.809,-0.023,31.66
2026-02-12 18:13:28.835,100.700,0.324707,0.510254,-0.781738,1.824,-2.924,0.481,31.66
2026-02-12 18:13:28.935,100.800,0.325439,0.505859,-0.775391,1.756,-2.931,0.214,31.51
2026-02-12 18:13:29.035,100.900,0.321777,0.506348,-0.773926,1.679,-2.947,0.412,31.36
2026-02-12 18:13:29.135,101.000,0.320801,0.509277,-0.778564,1.695,-2.710,0.603,31.46
2026-02-12 18:13:29.235,101.100,0.323486,0.505615,-0.775146,1.443,-2.863,0.298,31.51
2026-02-12 18:13:29.335,101.200,0.322754,0.508301,-0.775879,1.466,-3.046,0.244,31.51
2026-02-12 18:13:29.435,101.300,0.320557,0.499512,-0.779785,1.748,-2.695,0.099,31.51
2026-02-12 18:13:29.535,101.400,0.320801,0.505615,-0.775879,1.573,-3.092,0.397,31.51
2026-02-12 18:13:29.637,101.500,0.328857,0.503906,-0.776855,1.473,-2.580,0.336,31.66
2026-02-12 18:13:29.736,101.600,0.318359,0.508545,-0.773438,1.824,-2.977,0.313,31.32
2026-02-12 18:13:29.835,101.700,0.320068,0.506104,-0.778809,1.344,-3.000,0.420,31.02
2026-02-12 18:13:29.935,101.800,0.324219,0.509033,-0.782471,1.740,-3.076,0.275,31.66
2026-02-12 18:13:30.035,101.900,0.324707,0.508301,-0.781738,1.580,-2.771,0.176,31.56
2026-02-12 18:13:30.135,102.000,0.322021,0.503418,-0.779053,1.954,-2.985,0.305,31.22
2026-02-12 18:13:30.235,102.100,0.321777,0.510010,-0.779053,1.588,-2.969,0.321,31.66
2026-02-12 18:13:30.335,102.200,0.323486,0.508301,-0.787354,1.450,-3.023,-0.008,31.71
2026-02-12 18:13:30.435,102.300,0.322754,0.505859,-0.777588,1.679,-3.000,0.183,31.51
2026-02-12 18:13:30.535,102.400,0.321777,0.506104,-0.772949,1.863,-2.809,0.397,31.66
2026-02-12 18:13:30.635,102.500,0.319092,0.507568,-0.773682,1.534,-2.710,0.206,31.56
2026-02-12 18:13:30.735,102.600,0.321533,0.503906,-0.776611,1.588,-2.809,0.649,31.56
2026-02-12 18:13:30.835,102.700,0.322998,0.505859,-0.776367,1.519,-2.664,0.191,31.71
2026-02-12 18:13:30.935,102.800,0.318848,0.508057,-0.776611,1.748,-3.008,0.565,31.46
2026-02-12 18:13:31.035,102.900,0.325195,0.507324,-0.778076,1.679,-2.771,0.389,31.66
2026-02-12 18:13:31.135,103.000,0.323242,0.505615,-0.773926,1.916,-2.634,0.313,31.66
2026-02-12 18:13:31.235,103.100,0.323730,0.503906,-0.781494,1.733,-3.115,0.275,31.66
2026-02-12 18:13:31.335,103.200,0.323975,0.507568,-0.777832,1.710,-3.168,0.321,31.56
2026-02-12 18:13:31.435,103.300,0.324707,0.503418,-0.777832,1.893,-2.794,0.206,31.32
2026-02-12 18:13:31.535,103.400,0.322998,0.506104,-0.783447,1.725,-2.939,0.435,31.22
2026-02-12 18:13:31.635,103.500,0.321289,0.502686,-0.776367,1.695,-2.718,0.260,31.56
2026-02-12 18:13:31.735,103.600,0.322998,0.508789,-0.779053,1.802,-2.679,0.176,31.71
2026-02-12 18:13:31.835,103.700,0.322510,0.507812,-0.773926,1.626,-2.740,0.137,31.66
2026-02-12 18:13:31.935,103.800,0.321045,0.510010,-0.770996,1.588,-2.702,0.305,31.56
2026-02-12 18:13:32.035,103.900,0.325439,0.508301,-0.781006,1.855,-2.870,0.366,31.51
2026-02-12 18:13:32.135,104.000,0.324219,0.502441,-0.778564,1.870,-2.756,0.359,31.56
2026-02-12 18:13:32.235,104.100,0.319580,0.508789,-0.775391,1.817,-2.580,0.504,31.32
2026-02-12 18:13:32.335,104.200,0.320801,0.507080,-0.775391,1.550,-2.847,0.160,31.66
2026-02-12 18:13:32.435,104.300,0.325439,0.507324,-0.782959,1.786,-2.954,0.328,31.36
2026-02-12 18:13:32.535,104.400,0.321777,0.505859,-0.779053,1.779,-2.931,0.145,31.51
2026-02-12 18:13:32.635,104.500,0.325928,0.506348,-0.780273,1.473,-2.641,0.168,31.32
2026-02-12 18:13:32.735,104.600,0.324951,0.506592,-0.779785,1.809,-3.053,0.252,31.66
2026-02-12 18:13:32.835,104.700,0.316406,0.509521,-0.778320,1.664,-2.748,0.550,31.22
2026-02-12 18:13:32.935,104.800,0.324219,0.509766,-0.778564,1.947,-2.954,0.015,31.46
2026-02-12 18:13:33.035,104.900,0.321289,0.507080,-0.777588,1.809,-2.855,0.290,31.36
2026-02-12 18:13:33.135,105.000,0.323486,0.509766,-0.777344,1.473,-2.809,0.229,31.46
2026-02-12 18:13:33.235,105.100,0.322266,0.508545,-0.777832,1.481,-2.634,0.252,31.46
2026-02-12 18:13:33.335,105.200,0.323486,0.504395,-0.780518,1.725,-2.969,0.137,31.51
2026-02-12 18:13:33.435,105.300,0.322510,0.507812,-0.774902,1.687,-2.985,0.313,31.36
2026-02-12 18:13:33.535,105.400,0.323242,0.506104,-0.775146,1.649,-2.939,0.366,31.46
2026-02-12 18:13:33.635,105.500,0.321045,0.507080,-0.777100,1.718,-2.840,0.191,31.51
2026-02-12 18:13:33.735,105.600,0.319336,0.508789,-0.778809,1.656,-2.870,0.076,31.17
2026-02-12 18:13:33.835,105.700,0.325195,0.506348,-0.775391,1.817,-3.000,0.237,31.51
2026-02-12 18:13:33.935,105.800,0.327637,0.510010,-0.776367,1.817,-2.863,0.191,31.71
2026-02-12 18:13:34.035,105.900,0.323486,0.507080,-0.783203,1.672,-3.000,0.275,31.46
2026-02-12 18:13:34.135,106.000,0.324219,0.506104,-0.777588,1.542,-3.053,0.107,31.85
2026-02-12 18:13:34.235,106.100,0.325684,0.504395,-0.781494,1.870,-2.908,0.321,31.51
2026-02-12 18:13:34.335,106.200,0.325684,0.512695,-0.787354,1.435,-2.641,0.328,31.32
2026-02-12 18:13:34.435,106.300,0.321777,0.506592,-0.781494,1.641,-2.924,0.176,31.51
2026-02-12 18:13:34.535,106.400,0.322998,0.502197,-0.777832,1.832,-2.832,0.466,31.51
2026-02-12 18:13:34.635,106.500,0.321289,0.507812,-0.781738,1.779,-2.924,0.649,31.22
2026-02-12 18:13:34.735,106.600,0.324951,0.507080,-0.779053,1.710,-2.565,0.496,31.66
2026-02-12 18:13:34.835,106.700,0.319580,0.502930,-0.777832,1.733,-2.710,0.290,31.71
2026-02-12 18:13:34.935,106.800,0.324463,0.504639,-0.778809,1.885,-2.885,0.214,31.32
2026-02-12 18:13:35.035,106.900,0.322266,0.508057,-0.780518,1.534,-2.656,0.473,31.46
2026-02-12 18:13:35.135,107.000,0.321777,0.505615,-0.779053,1.740,-3.053,0.397,31.56
2026-02-12 18:13:35.235,107.100,0.320801,0.503906,-0.775391,1.687,-2.420,0.198,31.66
2026-02-12 18:13:35.335,107.200,0.320068,0.506592,-0.778809,1.855,-2.679,0.336,31.36
2026-02-12 18:13:35.435,107.300,0.321533,0.506104,-0.775146,1.916,-2.786,0.031,31.51
2026-02-12 18:13:35.535,107.400,0.320312,0.507812,-0.777832,1.565,-2.702,0.359,31.22
2026-02-12 18:13:35.635,107.500,0.322021,0.507080,-0.778564,1.794,-2.870,0.366,31.66
2026-02-12 18:13:35.735,107.600,0.318848,0.508301,-0.776611,1.794,-2.962,0.038,31.66
2026-02-12 18:13:35.835,107.700,0.326660,0.507080,-0.779053,1.664,-2.863,0.328,31.46
2026-02-12 18:13:35.935,107.800,0.321777,0.509033,-0.776855,1.718,-2.870,0.366,31.32
2026-02-12 18:13:36.035,107.900,0.322754,0.506348,-0.783936,1.481,-2.893,0.076,31.32
2026-02-12 18:13:36.135,108.000,0.321533,0.507324,-0.779785,1.824,-2.641,0.122,31.36
2026-02-12 18:13:36.235,108.100,0.323730,0.505371,-0.782227,1.687,-2.901,0.115,31.32
2026-02-12 18:13:36.335,108.200,0.323975,0.506348,-0.779785,1.832,-2.626,0.427,31.51
2026-02-12 18:13:36.435,108.300,0.321777,0.505859,-0.777832,1.779,-2.878,0.244,31.51
2026-02-12 18:13:36.535,108.400,0.326904,0.509033,-0.785156,1.534,-2.878,0.489,31.66
2026-02-12 18:13:36.635,108.500,0.323486,0.506836,-0.783203,1.611,-2.771,0.435,31.36
2026-02-12 18:13:36.735,108.600,0.323730,0.503174,-0.781250,1.626,-2.893,0.076,31.51
2026-02-12 18:13:36.835,108.700,0.322754,0.503418,-0.778320,1.863,-2.771,0.305,31.22
2026-02-12 18:13:36.935,108.800,0.321777,0.513184,-0.771484,1.695,-2.718,0.695,31.51
2026-02-12 18:13:37.035,108.900,0.322510,0.510254,-0.775391,1.611,-2.626,0.313,31.51
2026-02-12 18:13:37.135,109.000,0.320312,0.508057,-0.783203,1.939,-2.947,0.359,31.46
2026-02-12 18:13:37.235,109.100,0.327393,0.505127,-0.780762,1.588,-2.733,0.473,31.66
2026-02-12 18:13:37.335,109.200,0.320312,0.508545,-0.786621,1.893,-3.000,0.176,31.36
2026-02-12 18:13:37.435,109.300,0.324219,0.504639,-0.781006,1.870,-3.000,0.405,31.71
2026-02-12 18:13:37.535,109.400,0.321533,0.510498,-0.782959,1.595,-2.893,0.206,31.32
2026-02-12 18:13:37.635,109.500,0.323486,0.507568,-0.781982,1.771,-2.985,0.214,31.51
2026-02-12 18:13:37.735,109.600,0.321777,0.504639,-0.777832,1.679,-2.863,0.389,31.51
2026-02-12 18:13:37.835,109.700,0.324463,0.508789,-0.775879,1.824,-2.954,0.046,31.56
2026-02-12 18:13:37.935,109.800,0.324219,0.510742,-0.777100,1.756,-2.756,0.382,31.46
2026-02-12 18:13:38.035,109.900,0.319824,0.507324,-0.780762,2.015,-2.977,0.557,31.36
2026-02-12 18:13:38.135,110.000,0.326904,0.500488,-0.781494,1.695,-3.130,0.366,31.51
2026-02-12 18:13:38.235,110.100,0.325195,0.505615,-0.776611,1.679,-2.573,0.160,31.32
2026-02-12 18:13:38.335,110.200,0.321045,0.509277,-0.781738,1.718,-2.702,0.397,31.66
2026-02-12 18:13:38.435,110.300,0.322754,0.507812,-0.776855,1.649,-2.947,0.405,31.51
2026-02-12 18:13:38.535,110.400,0.319580,0.507080,-0.783447,1.550,-3.008,0.076,31.51
2026-02-12 18:13:38.635,110.500,0.322998,0.505615,-0.783936,1.603,-2.809,0.435,31.51
2026-02-12 18:13:38.735,110.600,0.320801,0.508545,-0.781738,1.832,-2.718,0.290,31.66
2026-02-12 18:13:38.835,110.700,0.322266,0.508301,-0.778809,1.695,-2.588,0.053,31.32
2026-02-12 18:13:38.935,110.800,0.319580,0.506104,-0.779297,1.969,-2.908,0.519,31.46
2026-02-12 18:13:39.035,110.900,0.323730,0.505859,-0.781250,1.473,-2.756,0.267,31.46
2026-02-12 18:13:39.135,111.000,0.321777,0.503418,-0.779297,1.824,-2.779,0.145,31.66
2026-02-12 18:13:39.235,111.100,0.325195,0.506104,-0.774658,1.840,-3.015,0.527,31.32
2026-02-12 18:13:39.335,111.200,0.323242,0.505859,-0.783447,1.550,-2.817,0.252,31.51
2026-02-12 18:13:39.435,111.300,0.321533,0.503418,-0.776855,1.718,-2.695,0.168,31.76
2026-02-12 18:13:39.535,111.400,0.323242,0.505127,-0.773193,1.656,-2.916,0.405,31.51
2026-02-12 18:13:39.635,111.500,0.323730,0.507324,-0.777832,1.710,-2.763,0.115,31.02
2026-02-12 18:13:39.735,111.600,0.323486,0.510498,-0.783447,2.000,-3.008,0.473,31.51
2026-02-12 18:13:39.835,111.700,0.323730,0.505615,-0.781982,1.634,-2.824,0.198,31.32
2026-02-12 18:13:39.935,111.800,0.321289,0.507568,-0.778320,1.771,-2.740,0.252,31.51
2026-02-12 18:13:40.035,111.900,0.323242,0.506592,-0.777588,1.878,-2.824,-0.023,31.66
2026-02-12 18:13:40.135,112.000,0.324463,0.504639,-0.776855,1.779,-2.656,0.344,31.36
2026-02-12 18:13:40.235,112.100,0.321777,0.511230,-0.776123,1.733,-2.672,0.260,31.76
2026-02-12 18:13:40.335,112.200,0.320801,0.506104,-0.779053,1.740,-2.885,0.344,31.51
2026-02-12 18:13:40.435,112.300,0.320557,0.505127,-0.780273,1.794,-2.756,0.290,31.66
2026-02-12 18:13:40.535,112.400,0.323730,0.505615,-0.780518,1.565,-3.122,0.443,31.32
2026-02-12 18:13:40.635,112.500,0.324707,0.507568,-0.779053,1.771,-3.015,0.573,31.17
2026-02-12 18:13:40.735,112.600,0.319336,0.506592,-0.780273,1.832,-2.710,0.092,31.51
2026-02-12 18:13:40.835,112.700,0.321777,0.510254,-0.775391,1.649,-2.847,0.107,31.66
2026-02-12 18:13:40.935,112.800,0.321289,0.505859,-0.774414,1.595,-2.840,0.366,31.36
2026-02-12 18:13:41.035,112.900,0.326416,0.504639,-0.779297,1.618,-2.733,0.328,31.66
2026-02-12 18:13:41.135,113.000,0.324707,0.508789,-0.775391,1.542,-2.878,0.237,31.56
2026-02-12 18:13:41.235,113.100,0.322510,0.509277,-0.774414,1.763,-2.794,0.374,31.66
2026-02-12 18:13:41.335,113.200,0.322754,0.510010,-0.774658,1.893,-2.863,0.565,31.46
2026-02-12 18:13:41.435,113.300,0.324951,0.507568,-0.780518,1.763,-2.702,0.496,31.66
2026-02-12 18:13:41.535,113.400,0.324219,0.502441,-0.782715,1.863,-2.740,0.504,31.51
2026-02-12 18:13:41.635,113.500,0.322266,0.508057,-0.778076,1.802,-2.786,0.153,31.66
2026-02-12 18:13:41.735,113.600,0.322266,0.505127,-0.775391,1.565,-2.595,0.076,31.51
2026-02-12 18:13:41.835,113.700,0.323486,0.511230,-0.781982,1.519,-2.962,0.260,31.51
2026-02-12 18:13:41.935,113.800,0.322021,0.506348,-0.780273,1.580,-2.603,0.427,31.46
2026-02-12 18:13:42.035,113.900,0.324219,0.505615,-0.777100,1.901,-3.000,0.305,31.66
2026-02-12 18:13:42.135,114.000,0.320068,0.505371,-0.776367,1.740,-2.756,0.061,31.71
2026-02-12 18:13:42.235,114.100,0.324707,0.507568,-0.780029,1.603,-2.740,0.718,31.56
2026-02-12 18:13:42.335,114.200,0.322266,0.504395,-0.781738,1.725,-3.046,0.618,31.51
2026-02-12 18:13:42.435,114.300,0.322021,0.507568,-0.784180,1.740,-2.817,0.420,31.71
2026-02-12 18:13:42.535,114.400,0.318604,0.505859,-0.774658,1.611,-2.786,0.244,31.71
2026-02-12 18:13:42.635,114.500,0.326660,0.509766,-0.776855,1.878,-2.725,0.198,31.51
2026-02-12 18:13:42.735,114.600,0.320557,0.510498,-0.780273,1.802,-2.809,0.282,31.66
2026-02-12 18:13:42.835,114.700,0.325439,0.506104,-0.783691,1.939,-2.763,0.473,31.32
2026-02-12 18:13:42.935,114.800,0.320557,0.506348,-0.776123,1.634,-2.740,0.450,31.51
2026-02-12 18:13:43.035,114.900,0.319580,0.506836,-0.777344,1.542,-2.756,0.344,31.51
2026-02-12 18:13:43.135,115.000,0.325684,0.504395,-0.781494,1.618,-2.863,0.137,31.66
2026-02-12 18:13:43.235,115.100,0.321045,0.505371,-0.782471,1.489,-2.710,0.351,31.66
2026-02-12 18:13:43.335,115.200,0.320801,0.507080,-0.777832,1.664,-2.756,0.267,31.32
2026-02-12 18:13:43.435,115.300,0.323975,0.503418,-0.783936,1.618,-2.977,0.282,31.66
2026-02-12 18:13:43.535,115.400,0.322754,0.508545,-0.781982,1.641,-2.939,0.137,31.36
2026-02-12 18:13:43.635,115.500,0.322266,0.507080,-0.781250,1.656,-2.603,0.076,31.51
2026-02-12 18:13:43.735,115.600,0.322021,0.508301,-0.783203,1.779,-2.794,0.031,31.51
2026-02-12 18:13:43.835,115.700,0.325928,0.504883,-0.774414,1.679,-2.977,0.282,31.51
2026-02-12 18:13:43.935,115.800,0.322754,0.508301,-0.777832,1.740,-2.939,0.160,31.46
2026-02-12 18:13:44.035,115.900,0.322510,0.505371,-0.775635,1.924,-2.840,0.221,31.66
2026-02-12 18:13:44.135,116.000,0.320557,0.509033,-0.782959,1.740,-2.962,0.298,31.32
2026-02-12 18:13:44.235,116.100,0.322998,0.507080,-0.781494,1.802,-2.786,0.191,31.51
2026-02-12 18:13:44.335,116.200,0.316895,0.504150,-0.775635,1.641,-2.710,0.069,31.51
2026-02-12 18:13:44.435,116.300,0.322510,0.504395,-0.776855,1.573,-2.939,0.275,31.46
2026-02-12 18:13:44.535,116.400,0.324219,0.509277,-0.781006,1.786,-2.985,0.206,31.32
2026-02-12 18:13:44.635,116.500,0.321533,0.507080,-0.778076,1.595,-2.427,0.351,31.46
2026-02-12 18:13:44.735,116.600,0.321777,0.507812,-0.775879,1.710,-2.908,0.221,31.66
2026-02-12 18:13:44.835,116.700,0.322266,0.509521,-0.779785,1.573,-2.924,-0.053,31.76
2026-02-12 18:13:44.935,116.800,0.322998,0.507568,-0.782227,1.603,-2.817,0.321,31.51
2026-02-12 18:13:45.035,116.900,0.325684,0.507568,-0.777344,1.603,-2.733,0.252,31.56
2026-02-12 18:13:45.135,117.000,0.320801,0.504395,-0.776855,1.664,-2.832,0.145,31.51
2026-02-12 18:13:45.235,117.100,0.322266,0.504395,-0.780029,1.702,-2.870,0.046,31.76
2026-02-12 18:13:45.335,117.200,0.323730,0.507812,-0.779053,2.130,-2.809,0.176,31.32
2026-02-12 18:13:45.435,117.300,0.325195,0.507324,-0.781006,1.916,-2.618,0.214,31.51
2026-02-12 18:13:45.535,117.400,0.324219,0.509033,-0.777100,1.695,-2.748,0.191,31.36
2026-02-12 18:13:45.635,117.500,0.325684,0.506104,-0.771240,1.634,-3.191,0.359,31.66
2026-02-12 18:13:45.735,117.600,0.325928,0.509277,-0.779297,1.626,-2.763,0.313,31.51
2026-02-12 18:13:45.835,117.700,0.322266,0.503662,-0.775391,1.786,-2.840,0.290,31.66
2026-02-12 18:13:45.935,117.800,0.322266,0.505859,-0.776855,1.603,-3.031,0.191,31.51
2026-02-12 18:13:46.035,117.900,0.324707,0.507080,-0.777832,1.733,-2.794,-0.153,31.51
2026-02-12 18:13:46.135,118.000,0.324463,0.506592,-0.780273,1.664,-2.702,0.420,31.36
2026-02-12 18:13:46.235,118.100,0.324951,0.510254,-0.778076,1.595,-2.794,0.183,31.36
2026-02-12 18:13:46.335,118.200,0.320068,0.503906,-0.783691,1.603,-2.702,0.389,31.36
2026-02-12 18:13:46.435,118.300,0.321533,0.506836,-0.779053,1.611,-2.901,0.481,31.66
2026-02-12 18:13:46.535,118.400,0.326416,0.504395,-0.780518,1.687,-2.908,0.496,31.32
2026-02-12 18:13:46.635,118.500,0.322754,0.506348,-0.776123,1.649,-2.771,0.519,31.46
2026-02-12 18:13:46.735,118.600,0.324707,0.508301,-0.780029,1.580,-2.809,0.221,31.46
2026-02-12 18:13:46.835,118.700,0.321777,0.504639,-0.778320,1.557,-2.885,0.130,31.66
2026-02-12 18:13:46.935,118.800,0.319092,0.505859,-0.777588,1.580,-2.908,0.328,31.36
2026-02-12 18:13:47.035,118.900,0.323975,0.509277,-0.775391,1.763,-2.733,0.336,31.66
2026-02-12 18:13:47.135,119.000,0.324707,0.506104,-0.779053,1.595,-2.710,0.267,31.46
2026-02-12 18:13:47.235,119.100,0.321045,0.506836,-0.779785,1.947,-3.069,0.145,31.22
2026-02-12 18:13:47.335,119.200,0.322510,0.506104,-0.780029,1.786,-2.878,0.557,31.51
2026-02-12 18:13:47.435,119.300,0.320557,0.506592,-0.770752,1.870,-2.840,0.084,31.51
2026-02-12 18:13:47.535,119.400,0.323486,0.506592,-0.772705,2.000,-3.122,0.183,31.51
2026-02-12 18:13:47.635,119.500,0.324463,0.504639,-0.780762,1.687,-2.962,0.351,31.66
2026-02-12 18:13:47.735,119.600,0.322754,0.504395,-0.779541,1.809,-2.969,0.130,31.32
2026-02-12 18:13:47.835,119.700,0.323975,0.508301,-0.778320,1.344,-2.725,-0.023,31.71
2026-02-12 18:13:47.935,119.800,0.320068,0.508301,-0.783447,1.824,-2.885,0.397,31.66
2026-02-12 18:13:48.035,119.900,0.322510,0.506104,-0.784424,1.794,-2.939,0.206,31.56
2026-02-12 18:13:48.135,120.000,0.322754,0.505859,-0.779297,1.718,-2.779,0.145,31.22
2026-02-12 18:13:48.235,120.100,0.319336,0.502441,-0.778076,1.916,-2.687,0.351,31.36
2026-02-12 18:13:48.335,120.200,0.323242,0.505371,-0.777344,1.802,-2.603,0.282,31.36
2026-02-12 18:13:48.435,120.300,0.324707,0.509033,-0.777100,1.542,-2.786,0.511,31.32
2026-02-12 18:13:48.535,120.400,0.319824,0.507812,-0.776855,1.840,-2.847,0.046,31.71
2026-02-12 18:13:48.635,120.500,0.322998,0.508301,-0.779297,1.908,-2.931,0.511,31.66
2026-02-12 18:13:48.735,120.600,0.323975,0.508545,-0.779541,1.641,-3.053,0.298,31.22
2026-02-12 18:13:48.835,120.700,0.323486,0.507568,-0.782227,1.710,-2.618,0.344,31.51
2026-02-12 18:13:48.935,120.800,0.323975,0.506104,-0.779785,1.779,-3.000,0.344,31.36
2026-02-12 18:13:49.035,120.900,0.320801,0.509033,-0.780762,1.840,-2.771,0.481,31.51
2026-02-12 18:13:49.135,121.000,0.322510,0.504639,-0.776611,1.618,-2.939,0.000,31.32
2026-02-12 18:13:49.235,121.100,0.321533,0.506836,-0.784424,1.695,-2.763,0.344,31.17
2026-02-12 18:13:49.335,121.200,0.322510,0.504883,-0.775391,1.580,-2.878,0.191,31.51
2026-02-12 18:13:49.435,121.300,0.320801,0.502441,-0.781006,1.779,-3.008,0.153,31.71
2026-02-12 18:13:49.535,121.400,0.324219,0.506836,-0.779541,1.763,-2.931,0.145,31.51
2026-02-12 18:13:49.635,121.500,0.323730,0.502686,-0.777832,1.634,-3.084,0.031,31.46
2026-02-12 18:13:49.735,121.600,0.323730,0.505615,-0.775635,1.725,-2.702,0.145,31.66
2026-02-12 18:13:49.835,121.700,0.320312,0.503174,-0.783447,1.779,-2.718,0.160,31.46
2026-02-12 18:13:49.935,121.800,0.322266,0.510010,-0.773193,1.733,-2.786,0.344,31.51
2026-02-12 18:13:50.035,121.900,0.320801,0.505371,-0.776367,1.573,-2.824,0.069,31.22
2026-02-12 18:13:50.135,122.000,0.326416,0.507812,-0.782227,2.000,-2.595,0.397,31.32
2026-02-12 18:13:50.235,122.100,0.321289,0.505615,-0.780273,1.519,-2.969,0.420,31.51
2026-02-12 18:13:50.335,122.200,0.324219,0.508789,-0.777832,1.557,-2.924,0.237,31.32
2026-02-12 18:13:50.435,122.300,0.320801,0.506104,-0.782471,1.542,-2.779,0.336,31.66
2026-02-12 18:13:50.535,122.400,0.323730,0.507324,-0.786377,1.702,-2.901,0.099,31.32
2026-02-12 18:13:50.635,122.500,0.323486,0.507812,-0.780762,1.885,-2.779,0.427,31.32
2026-02-12 18:13:50.735,122.600,0.322510,0.503418,-0.781250,1.656,-2.779,0.206,31.56
2026-02-12 18:13:50.835,122.700,0.322021,0.509766,-0.773682,1.885,-2.939,0.084,31.71
2026-02-12 18:13:50.935,122.800,0.322754,0.505859,-0.773926,1.603,-2.748,0.046,31.46
2026-02-12 18:13:51.035,122.900,0.321777,0.507324,-0.774902,1.733,-2.916,0.237,31.66
2026-02-12 18:13:51.135,123.000,0.325928,0.509033,-0.777100,1.649,-2.809,0.137,31.51
2026-02-12 18:13:51.235,123.100,0.322754,0.503418,-0.780029,1.641,-2.695,0.160,31.56
2026-02-12 18:13:51.335,123.200,0.319580,0.507080,-0.777832,1.771,-2.924,0.115,31.51
2026-02-12 18:13:51.435,123.300,0.322021,0.510986,-0.780518,1.672,-2.969,0.183,31.71
2026-02-12 18:13:51.535,123.400,0.322021,0.510498,-0.781738,1.603,-2.878,0.321,31.51
2026-02-12 18:13:51.635,123.500,0.323975,0.505127,-0.784180,1.771,-2.870,0.237,31.17
2026-02-12 18:13:51.735,123.600,0.322998,0.505615,-0.777344,1.542,-2.893,0.252,31.32
2026-02-12 18:13:51.835,123.700,0.319824,0.509033,-0.782715,1.710,-2.817,0.252,31.56
2026-02-12 18:13:51.935,123.800,0.322754,0.507324,-0.780762,1.695,-2.855,0.031,31.66
2026-02-12 18:13:52.035,123.900,0.322510,0.508789,-0.772705,1.794,-2.908,0.344,31.66
2026-02-12 18:13:52.135,124.000,0.323486,0.505859,-0.779785,1.496,-2.794,0.313,31.46
2026-02-12 18:13:52.235,124.100,0.321289,0.507568,-0.773193,1.817,-2.794,0.336,31.71
2026-02-12 18:13:52.335,124.200,0.325684,0.507080,-0.782959,1.786,-2.870,0.183,31.56
2026-02-12 18:13:52.435,124.300,0.322998,0.507812,-0.778809,1.962,-2.817,0.450,31.56
2026-02-12 18:13:52.535,124.400,0.322510,0.505371,-0.782715,1.733,-2.992,0.267,31.51
2026-02-12 18:13:52.635,124.500,0.319336,0.503662,-0.780029,1.435,-2.763,0.191,31.66
2026-02-12 18:13:52.735,124.600,0.321777,0.510498,-0.779541,1.824,-2.550,0.046,31.32
2026-02-12 18:13:52.835,124.700,0.323975,0.508057,-0.785889,1.878,-2.786,0.412,31.51
2026-02-12 18:13:52.935,124.800,0.323730,0.509033,-0.780029,1.786,-3.023,0.443,31.56
2026-02-12 18:13:53.035,124.900,0.322998,0.505859,-0.781250,1.718,-2.855,0.595,31.36
2026-02-12 18:13:53.135,125.000,0.324707,0.508301,-0.778564,1.748,-2.786,0.397,31.71
2026-02-12 18:13:53.235,125.100,0.325195,0.504639,-0.774170,1.534,-3.145,0.237,31.36
2026-02-12 18:13:53.335,125.200,0.325439,0.508301,-0.770996,1.748,-2.725,0.321,31.71
2026-02-12 18:13:53.435,125.300,0.321533,0.509033,-0.782227,1.954,-2.901,0.023,31.66
2026-02-12 18:13:53.535,125.400,0.320801,0.507324,-0.781494,1.710,-2.702,0.176,31.32
2026-02-12 18:13:53.635,125.500,0.323975,0.508545,-0.781738,1.901,-3.023,0.275,31.56
2026-02-12 18:13:53.735,125.600,0.320068,0.503174,-0.781250,1.511,-2.985,0.099,31.36
2026-02-12 18:13:53.835,125.700,0.323242,0.510254,-0.780029,1.779,-2.931,0.168,31.32
2026-02-12 18:13:53.935,125.800,0.324219,0.510498,-0.773682,1.580,-2.908,0.206,31.51
2026-02-12 18:13:54.035,125.900,0.328613,0.508057,-0.779785,1.580,-2.679,0.389,31.36
2026-02-12 18:13:54.135,126.000,0.323242,0.509766,-0.775391,1.565,-2.832,0.305,31.56
2026-02-12 18:13:54.235,126.100,0.324463,0.508545,-0.782471,1.802,-2.710,0.229,31.66
2026-02-12 18:13:54.335,126.200,0.320312,0.506836,-0.776611,1.718,-2.710,0.443,31.51
2026-02-12 18:13:54.435,126.300,0.321533,0.507568,-0.780762,1.656,-2.908,0.099,31.51
2026-02-12 18:13:54.535,126.400,0.325195,0.509521,-0.781250,1.519,-2.962,0.298,31.36
2026-02-12 18:13:54.635,126.500,0.325439,0.504639,-0.777344,1.954,-2.809,0.366,31.46
2026-02-12 18:13:54.735,126.600,0.321533,0.507568,-0.775879,1.702,-2.641,0.298,31.32
2026-02-12 18:13:54.835,126.700,0.321777,0.508301,-0.777588,1.695,-2.870,0.008,31.46
2026-02-12 18:13:54.935,126.800,0.322754,0.506592,-0.775879,1.542,-3.015,0.351,31.51
2026-02-12 18:13:55.035,126.900,0.320068,0.503906,-0.775879,1.870,-2.977,0.244,31.66
2026-02-12 18:13:55.135,127.000,0.324707,0.504883,-0.777832,1.870,-2.901,0.153,31.66
2026-02-12 18:13:55.235,127.100,0.322021,0.505127,-0.781250,1.702,-2.740,0.321,31.32
2026-02-12 18:13:55.335,127.200,0.323242,0.505615,-0.773438,1.786,-2.710,0.084,31.36
2026-02-12 18:13:55.435,127.300,0.322510,0.506348,-0.778809,1.557,-2.618,0.145,31.46
2026-02-12 18:13:55.535,127.400,0.320068,0.508057,-0.778564,1.504,-2.847,0.275,31.51
2026-02-12 18:13:55.635,127.500,0.321289,0.507080,-0.774658,1.672,-2.962,0.160,31.36
2026-02-12 18:13:55.735,127.600,0.320801,0.506836,-0.783203,1.763,-2.832,0.496,31.46
2026-02-12 18:13:55.835,127.700,0.327148,0.507080,-0.774902,1.786,-3.168,0.382,31.51
2026-02-12 18:13:55.935,127.800,0.320801,0.506348,-0.773682,1.763,-2.985,0.305,31.46
2026-02-12 18:13:56.035,127.900,0.321289,0.506592,-0.775635,1.588,-2.527,0.145,31.51
2026-02-12 18:13:56.135,128.000,0.322754,0.508789,-0.778320,1.611,-2.779,0.275,31.56
2026-02-12 18:13:56.235,128.100,0.323486,0.507324,-0.779297,1.931,-3.015,0.298,31.46
2026-02-12 18:13:56.335,128.200,0.320312,0.507812,-0.781494,1.809,-2.763,0.107,31.71
2026-02-12 18:13:56.435,128.300,0.320068,0.507568,-0.784912,1.763,-2.878,0.137,31.66
2026-02-12 18:13:56.535,128.400,0.320557,0.507812,-0.776611,1.603,-2.763,0.282,31.36
2026-02-12 18:13:56.635,128.500,0.325195,0.504883,-0.777832,1.885,-2.794,0.076,31.66
2026-02-12 18:13:56.735,128.600,0.317627,0.505127,-0.782715,1.511,-2.542,0.198,31.66
2026-02-12 18:13:56.835,128.700,0.323242,0.504883,-0.780029,1.740,-2.771,0.427,31.46
2026-02-12 18:13:56.935,128.800,0.322754,0.510010,-0.775146,1.618,-2.756,0.092,31.56
2026-02-12 18:13:57.035,128.900,0.324707,0.509277,-0.777588,1.634,-2.817,0.718,31.17
2026-02-12 18:13:57.135,129.000,0.322510,0.504883,-0.779785,1.954,-2.771,0.595,31.46
2026-02-12 18:13:57.235,129.100,0.323975,0.510010,-0.781494,1.473,-2.870,0.359,31.46
2026-02-12 18:13:57.335,129.200,0.323242,0.507324,-0.781738,1.656,-2.939,0.282,31.66
2026-02-12 18:13:57.435,129.300,0.324951,0.505859,-0.775391,1.687,-3.023,0.229,31.46
2026-02-12 18:13:57.535,129.400,0.320312,0.505127,-0.780518,1.748,-2.687,0.092,31.36
2026-02-12 18:13:57.635,129.500,0.323975,0.507568,-0.779541,1.664,-2.947,-0.038,31.71
2026-02-12 18:13:57.735,129.600,0.320801,0.506348,-0.776611,1.779,-2.718,0.473,31.66
2026-02-12 18:13:57.835,129.700,0.321045,0.505615,-0.781982,1.595,-3.092,0.229,31.71
2026-02-12 18:13:57.935,129.800,0.318848,0.509033,-0.781250,1.664,-2.863,0.145,31.17
2026-02-12 18:13:58.035,129.900,0.321289,0.507324,-0.772949,1.908,-2.817,0.046,31.36
2026-02-12 18:13:58.135,130.000,0.321533,0.505127,-0.786865,1.924,-2.969,0.275,31.36
2026-02-12 18:13:58.235,130.100,0.319336,0.506836,-0.780273,1.664,-2.817,0.244,31.56
2026-02-12 18:13:58.335,130.200,0.317383,0.508301,-0.784912,1.824,-2.779,0.382,31.66
2026-02-12 18:13:58.435,130.300,0.320068,0.508301,-0.781006,1.656,-2.832,0.336,31.66
2026-02-12 18:13:58.535,130.400,0.317627,0.509766,-0.778564,1.756,-2.969,0.389,31.36
2026-02-12 18:13:58.635,130.500,0.322998,0.509521,-0.781982,1.779,-2.954,0.496,31.66
2026-02-12 18:13:58.735,130.600,0.320557,0.509277,-0.779053,1.771,-2.847,0.145,31.66
2026-02-12 18:13:58.835,130.700,0.321045,0.508057,-0.780273,1.855,-2.695,0.168,31.36
2026-02-12 18:13:58.935,130.800,0.321289,0.505859,-0.784180,2.031,-2.649,0.183,31.66
2026-02-12 18:13:59.035,130.900,0.323486,0.508057,-0.778564,1.702,-2.740,0.221,31.66
2026-02-12 18:13:59.135,131.000,0.323242,0.505615,-0.778809,1.702,-2.649,0.168,31.56
2026-02-12 18:13:59.235,131.100,0.321045,0.511230,-0.777588,1.901,-3.061,0.351,31.36
2026-02-12 18:13:59.335,131.200,0.320557,0.504883,-0.776611,1.496,-3.046,0.649,31.32
2026-02-12 18:13:59.435,131.300,0.322510,0.507568,-0.779297,1.725,-2.947,0.176,31.66
2026-02-12 18:13:59.535,131.400,0.326416,0.505615,-0.779053,1.733,-2.817,0.099,31.66
2026-02-12 18:13:59.635,131.500,0.320557,0.509033,-0.777832,1.557,-2.916,-0.046,31.66
2026-02-12 18:13:59.735,131.600,0.320557,0.502930,-0.781006,1.557,-3.122,0.298,31.66
2026-02-12 18:13:59.835,131.700,0.320312,0.508057,-0.772705,1.802,-2.733,0.061,31.51
2026-02-12 18:13:59.935,131.800,0.322021,0.509766,-0.779053,1.855,-2.916,0.504,31.36
2026-02-12 18:14:00.035,131.900,0.324463,0.505615,-0.783691,1.947,-2.824,0.214,31.66
2026-02-12 18:14:00.135,132.000,0.324219,0.509521,-0.781250,1.695,-3.015,0.130,31.46
2026-02-12 18:14:00.235,132.100,0.323486,0.504395,-0.778320,1.634,-2.977,0.206,31.66
2026-02-12 18:14:00.335,132.200,0.319336,0.502930,-0.778320,1.542,-2.939,0.282,31.51
2026-02-12 18:14:00.435,132.300,0.322510,0.505371,-0.783691,1.534,-2.832,0.160,31.32
2026-02-12 18:14:00.535,132.400,0.320801,0.504639,-0.777344,1.794,-2.847,0.244,31.32
2026-02-12 18:14:00.635,132.500,0.320801,0.505127,-0.772705,1.786,-2.947,0.328,31.51
2026-02-12 18:14:00.735,132.600,0.324707,0.503174,-0.779541,1.786,-2.977,0.344,31.76
2026-02-12 18:14:00.835,132.700,0.322021,0.509033,-0.776367,1.870,-2.870,0.298,31.46
2026-02-12 18:14:00.935,132.800,0.321777,0.504639,-0.778076,1.695,-2.809,0.099,31.56
2026-02-12 18:14:01.035,132.900,0.319824,0.504150,-0.776611,1.603,-2.679,0.336,31.66
2026-02-12 18:14:01.135,133.000,0.320068,0.510498,-0.780273,1.496,-2.740,0.214,31.46
2026-02-12 18:14:01.235,133.100,0.320312,0.501221,-0.781006,1.870,-2.809,0.305,31.32
2026-02-12 18:14:01.335,133.200,0.322754,0.508545,-0.776367,1.557,-2.725,0.466,31.56
2026-02-12 18:14:01.435,133.300,0.322266,0.504883,-0.777100,1.649,-2.947,0.321,31.32
2026-02-12 18:14:01.535,133.400,0.323975,0.510986,-0.782471,1.748,-2.733,0.145,31.66
2026-02-12 18:14:01.635,133.500,0.322510,0.507080,-0.781250,1.527,-3.153,0.260,31.66
2026-02-12 18:14:01.735,133.600,0.322754,0.506836,-0.777832,1.870,-2.656,0.206,31.51
2026-02-12 18:14:01.835,133.700,0.319092,0.510742,-0.777832,1.588,-2.756,0.260,31.51
2026-02-12 18:14:01.935,133.800,0.320801,0.511963,-0.781738,1.687,-2.924,0.229,31.51
2026-02-12 18:14:02.035,133.900,0.322998,0.510742,-0.779297,1.603,-2.847,0.305,31.32
2026-02-12 18:14:02.135,134.000,0.324707,0.510986,-0.780762,1.908,-2.954,0.504,31.32
2026-02-12 18:14:02.235,134.100,0.321777,0.502686,-0.781006,1.878,-2.954,0.290,31.32
2026-02-12 18:14:02.335,134.200,0.319824,0.506104,-0.784912,1.489,-2.878,0.336,31.56
2026-02-12 18:14:02.435,134.300,0.322998,0.503418,-0.779785,1.595,-2.878,0.168,31.66
2026-02-12 18:14:02.535,134.400,0.321289,0.509766,-0.776611,1.542,-2.969,0.137,31.46
2026-02-12 18:14:02.635,134.500,0.323486,0.506836,-0.780273,1.557,-2.947,0.229,31.46
2026-02-12 18:14:02.735,134.600,0.322266,0.509277,-0.781982,1.931,-2.924,0.206,31.51
2026-02-12 18:14:02.835,134.700,0.324707,0.507080,-0.773682,1.702,-2.664,0.053,31.66
2026-02-12 18:14:02.935,134.800,0.321777,0.509033,-0.774170,1.725,-2.710,0.298,31.51
2026-02-12 18:14:03.035,134.900,0.321533,0.503662,-0.781982,1.786,-2.840,0.542,31.36
2026-02-12 18:14:03.135,135.000,0.324219,0.507080,-0.781494,1.794,-2.824,-0.046,31.51
2026-02-12 18:14:03.235,135.100,0.319580,0.509521,-0.777100,1.916,-2.947,0.359,31.46
2026-02-12 18:14:03.335,135.200,0.319092,0.508545,-0.781982,1.672,-3.107,0.153,31.51
2026-02-12 18:14:03.435,135.300,0.321289,0.506592,-0.772949,1.603,-2.992,0.359,31.46
2026-02-12 18:14:03.535,135.400,0.324707,0.504883,-0.780273,1.718,-2.794,0.489,31.46
2026-02-12 18:14:03.635,135.500,0.323486,0.508057,-0.780518,1.840,-2.893,0.275,31.56
2026-02-12 18:14:03.735,135.600,0.321045,0.507568,-0.783691,1.748,-2.809,0.275,31.66
2026-02-12 18:14:03.835,135.700,0.324951,0.506348,-0.772949,1.557,-2.924,0.336,31.46
2026-02-12 18:14:03.935,135.800,0.321533,0.509277,-0.777588,1.756,-2.817,0.107,31.46
2026-02-12 18:14:04.035,135.900,0.322754,0.505859,-0.780273,1.649,-2.779,0.496,31.22
2026-02-12 18:14:04.135,136.000,0.321289,0.504395,-0.777100,1.710,-2.702,0.107,31.36
2026-02-12 18:14:04.235,136.100,0.322266,0.504395,-0.780029,1.733,-3.015,0.420,31.66
2026-02-12 18:14:04.335,136.200,0.323730,0.504883,-0.777832,1.695,-2.718,0.313,31.46
2026-02-12 18:14:04.435,136.300,0.320312,0.504639,-0.775879,1.740,-2.916,0.160,31.66
2026-02-12 18:14:04.535,136.400,0.317383,0.502930,-0.775635,1.344,-2.962,0.031,31.51
2026-02-12 18:14:04.635,136.500,0.323975,0.503662,-0.784180,1.786,-2.725,0.176,31.46
2026-02-12 18:14:04.735,136.600,0.321289,0.505615,-0.784668,1.580,-2.817,-0.031,31.36
2026-02-12 18:14:04.835,136.700,0.322266,0.503906,-0.776123,1.710,-2.931,0.405,31.36
2026-02-12 18:14:04.935,136.800,0.318848,0.505859,-0.774170,1.977,-2.901,0.252,31.71
2026-02-12 18:14:05.035,136.900,0.322754,0.510254,-0.785156,1.916,-2.786,0.588,31.36
2026-02-12 18:14:05.135,137.000,0.320312,0.511719,-0.775391,1.626,-2.817,0.336,31.36
2026-02-12 18:14:05.235,137.100,0.326660,0.507080,-0.778564,1.603,-2.924,0.511,31.76
2026-02-12 18:14:05.335,137.200,0.320557,0.504150,-0.777588,1.702,-2.885,0.420,31.32
2026-02-12 18:14:05.435,137.300,0.321045,0.504639,-0.778320,1.840,-3.031,0.099,31.36
2026-02-12 18:14:05.535,137.400,0.326172,0.508545,-0.782959,1.824,-3.153,0.069,31.46
2026-02-12 18:14:05.635,137.500,0.322754,0.506592,-0.776611,1.580,-2.832,0.160,31.66
2026-02-12 18:14:05.735,137.600,0.319336,0.505859,-0.782959,1.802,-2.672,-0.099,31.71
2026-02-12 18:14:05.835,137.700,0.320312,0.506836,-0.779297,1.702,-2.962,0.359,31.51
2026-02-12 18:14:05.935,137.800,0.321045,0.507568,-0.781250,1.534,-2.748,0.366,31.51
2026-02-12 18:14:06.035,137.900,0.321289,0.511719,-0.775146,1.718,-2.840,0.092,31.46
2026-02-12 18:14:06.135,138.000,0.322266,0.509033,-0.784668,1.802,-2.931,0.137,31.32
2026-02-12 18:14:06.235,138.100,0.323486,0.507812,-0.776367,1.939,-2.794,0.351,31.71
2026-02-12 18:14:06.335,138.200,0.323975,0.510254,-0.781006,1.588,-2.847,0.290,31.71
2026-02-12 18:14:06.435,138.300,0.324463,0.505371,-0.776123,1.718,-2.908,0.382,31.32
2026-02-12 18:14:06.535,138.400,0.326660,0.505127,-0.787842,1.725,-2.832,0.412,31.36
2026-02-12 18:14:06.635,138.500,0.319336,0.505127,-0.776855,1.626,-2.885,0.351,31.66
2026-02-12 18:14:06.735,138.600,0.323242,0.504883,-0.776367,1.840,-2.756,0.053,31.46
2026-02-12 18:14:06.835,138.700,0.322510,0.507812,-0.780029,1.702,-2.824,0.214,31.36
2026-02-12 18:14:06.935,138.800,0.321289,0.504395,-0.788574,1.481,-2.771,0.183,31.32
2026-02-12 18:14:07.035,138.900,0.324951,0.504883,-0.780762,2.038,-2.916,0.313,31.51
2026-02-12 18:14:07.135,139.000,0.321045,0.509766,-0.782471,1.687,-2.656,0.214,31.36
2026-02-12 18:14:07.235,139.100,0.321533,0.506104,-0.781250,2.038,-3.038,0.382,31.66
2026-02-12 18:14:07.335,139.200,0.322021,0.507568,-0.780518,1.695,-2.710,0.183,31.51
2026-02-12 18:14:07.435,139.300,0.323486,0.511230,-0.780029,1.542,-2.802,0.427,31.66
2026-02-12 18:14:07.535,139.400,0.325439,0.506348,-0.782471,1.779,-2.748,0.076,31.56
2026-02-12 18:14:07.635,139.500,0.322754,0.510498,-0.775146,1.710,-2.786,0.206,31.66
2026-02-12 18:14:07.735,139.600,0.325439,0.507080,-0.779785,1.649,-2.595,0.298,31.51
2026-02-12 18:14:07.835,139.700,0.323242,0.506836,-0.780029,1.672,-2.550,0.321,31.56
2026-02-12 18:14:07.935,139.800,0.323975,0.510254,-0.782715,1.603,-2.756,0.527,31.66
2026-02-12 18:14:08.035,139.900,0.324707,0.502686,-0.777100,1.588,-2.626,0.115,31.36
2026-02-12 18:14:08.135,140.000,0.317383,0.507080,-0.779297,1.908,-2.603,0.382,31.56
2026-02-12 18:14:08.235,140.100,0.323486,0.509766,-0.777588,1.748,-2.779,0.344,31.51
2026-02-12 18:14:08.335,140.200,0.324951,0.507324,-0.780762,1.565,-2.733,0.061,31.46
2026-02-12 18:14:08.435,140.300,0.323975,0.509033,-0.778320,1.672,-2.786,0.176,31.51
2026-02-12 18:14:08.535,140.400,0.323730,0.505859,-0.777588,1.565,-2.679,0.023,31.51
2026-02-12 18:14:08.635,140.500,0.322510,0.507812,-0.781250,1.725,-2.786,0.023,31.46
2026-02-12 18:14:08.735,140.600,0.323486,0.507568,-0.780029,1.687,-2.863,0.427,31.51
2026-02-12 18:14:08.835,140.700,0.323975,0.504395,-0.777588,1.618,-2.725,0.290,31.32
2026-02-12 18:14:08.935,140.800,0.323486,0.512207,-0.776123,1.725,-2.893,0.244,31.32
2026-02-12 18:14:09.035,140.900,0.323242,0.507812,-0.777832,1.817,-2.786,0.450,31.71
2026-02-12 18:14:09.135,141.000,0.320312,0.507568,-0.782471,1.656,-2.725,0.191,31.32
2026-02-12 18:14:09.235,141.100,0.324463,0.510742,-0.782227,1.863,-2.809,0.092,31.66
2026-02-12 18:14:09.335,141.200,0.327148,0.507324,-0.777344,1.595,-2.977,0.145,31.51
2026-02-12 18:14:09.435,141.300,0.321289,0.509033,-0.779053,1.656,-2.725,0.153,31.36
2026-02-12 18:14:09.535,141.400,0.322510,0.510986,-0.779785,1.611,-2.756,0.176,31.51
2026-02-12 18:14:09.635,141.500,0.321289,0.507080,-0.776855,1.786,-2.702,0.282,31.46
2026-02-12 18:14:09.735,141.600,0.322510,0.505371,-0.781738,1.855,-2.992,0.366,31.36
2026-02-12 18:14:09.835,141.700,0.325439,0.507324,-0.786621,1.863,-2.710,0.305,31.22
2026-02-12 18:14:09.935,141.800,0.317627,0.504639,-0.775635,1.580,-2.710,0.374,31.36
2026-02-12 18:14:10.035,141.900,0.324951,0.505615,-0.780762,1.817,-2.992,0.145,31.66
2026-02-12 18:14:10.135,142.000,0.317627,0.505127,-0.776367,1.702,-2.977,0.176,31.46
2026-02-12 18:14:10.235,142.100,0.322021,0.508057,-0.781250,1.595,-3.053,0.099,31.36
