timestamp,time_seconds,accel_x_g,accel_y_g,accel_z_g,gyro_x_dps,gyro_y_dps,gyro_z_dps,temp_c
2026-02-13 16:29:27.177,0.000,0.032323,-0.014627,1.772637,1.255,-2.227,0.504,32.78
2026-02-13 16:29:27.277,0.100,0.030614,-0.015848,1.776299,1.110,-2.647,0.802,32.93
2026-02-13 16:29:27.377,0.200,0.026464,-0.011697,1.772149,1.202,-2.273,0.787,32.93
2026-02-13 16:29:27.477,0.300,0.027440,-0.015359,1.774346,1.286,-2.296,0.802,32.64
2026-02-13 16:29:27.577,0.400,0.034276,-0.015115,1.777764,1.171,-2.380,0.688,32.93
2026-02-13 16:29:27.677,0.500,0.029394,-0.013650,1.772881,1.034,-2.219,0.741,32.98
2026-02-13 16:29:27.777,0.600,0.030126,-0.015359,1.781426,1.126,-2.120,0.733,32.98
2026-02-13 16:29:27.877,0.700,0.032079,-0.011941,1.774835,1.141,-2.403,0.749,32.78
2026-02-13 16:29:27.978,0.801,0.034276,-0.014139,1.774346,1.026,-1.906,0.642,32.98
2026-02-13 16:29:28.077,0.900,0.033544,-0.012918,1.772881,1.263,-2.090,0.382,32.98
2026-02-13 16:29:28.177,1.000,0.027685,-0.013406,1.777276,1.217,-2.563,0.741,32.78
2026-02-13 16:29:28.277,1.100,0.031835,-0.013162,1.776788,1.156,-2.319,0.840,32.83
2026-02-13 16:29:28.377,1.200,0.031835,-0.017068,1.776788,1.087,-2.280,0.833,32.64
2026-02-13 16:29:28.477,1.300,0.031591,-0.013895,1.779717,0.965,-2.250,0.642,32.83
2026-02-13 16:29:28.577,1.400,0.032079,-0.012674,1.775811,1.095,-1.990,0.932,32.98
2026-02-13 16:29:28.677,1.500,0.029394,-0.013406,1.775323,1.095,-1.937,0.680,33.08
2026-02-13 16:29:28.777,1.600,0.030858,-0.015848,1.777520,1.187,-2.303,0.787,32.54
2026-02-13 16:29:28.877,1.700,0.035497,-0.015848,1.773126,0.996,-2.219,1.085,32.83
2026-02-13 16:29:28.977,1.800,0.030370,-0.015604,1.778741,1.286,-2.242,0.833,32.93
2026-02-13 16:29:29.077,1.900,0.030126,-0.012918,1.779473,1.003,-2.425,1.008,32.93
2026-02-13 16:29:29.177,2.000,0.030858,-0.015359,1.779473,1.316,-2.128,0.871,32.83
2026-02-13 16:29:29.277,2.100,0.032079,-0.014139,1.778008,1.026,-2.364,0.863,32.93
2026-02-13 16:29:29.377,2.200,0.031835,-0.011697,1.778985,1.362,-2.196,0.703,32.78
2026-02-13 16:29:29.477,2.300,0.030370,-0.017801,1.774346,1.072,-2.135,0.741,32.74
2026-02-13 16:29:29.577,2.400,0.032567,-0.011453,1.780938,1.294,-2.250,0.688,32.93
2026-02-13 16:29:29.677,2.500,0.029638,-0.018533,1.776788,1.141,-1.983,0.718,32.93
2026-02-13 16:29:29.777,2.600,0.032812,-0.015359,1.773370,1.003,-2.380,0.627,32.93
2026-02-13 16:29:29.877,2.700,0.033300,-0.017068,1.775323,1.042,-1.998,0.665,32.74
2026-02-13 16:29:29.977,2.800,0.033788,-0.016092,1.775323,1.049,-2.425,0.741,32.74
2026-02-13 16:29:30.077,2.900,0.028417,-0.016580,1.778741,1.232,-2.311,0.779,32.93
2026-02-13 16:29:30.177,3.000,0.031347,-0.015115,1.778008,1.210,-2.135,0.848,33.13
2026-02-13 16:29:30.277,3.100,0.031591,-0.015115,1.773126,1.416,-2.410,0.459,32.74
2026-02-13 16:29:30.377,3.200,0.028173,-0.015115,1.772149,1.347,-2.296,0.733,32.93
2026-02-13 16:29:30.477,3.300,0.031835,-0.012186,1.782647,1.194,-2.105,0.558,33.08
2026-02-13 16:29:30.577,3.400,0.032567,-0.017068,1.777764,1.171,-2.425,0.856,33.08
2026-02-13 16:29:30.677,3.500,0.030126,-0.014383,1.779962,1.316,-2.341,0.833,32.83
2026-02-13 16:29:30.777,3.600,0.030370,-0.014871,1.773858,1.187,-2.189,0.909,32.74
2026-02-13 16:29:30.877,3.700,0.027196,-0.016824,1.778253,1.156,-2.105,0.718,33.13
2026-02-13 16:29:30.977,3.800,0.028905,-0.013162,1.773614,1.042,-2.219,0.917,32.78
2026-02-13 16:29:31.077,3.900,0.031591,-0.019754,1.776299,1.072,-2.288,1.153,32.93
2026-02-13 16:29:31.177,4.000,0.032567,-0.015115,1.774835,1.278,-2.258,0.848,32.74
2026-02-13 16:29:31.277,4.100,0.004247,0.008566,1.764581,0.797,-2.143,0.497,32.98
2026-02-13 16:29:31.377,4.200,0.027929,-0.018289,1.784112,1.034,-2.196,0.825,32.64
2026-02-13 16:29:31.477,4.300,0.023046,-0.013162,1.781915,1.271,-2.586,0.520,32.59
2026-02-13 16:29:31.577,4.400,0.039892,-0.014871,1.777276,1.133,-2.441,0.833,32.74
2026-02-13 16:29:31.677,4.500,0.028173,-0.014139,1.777764,1.110,-1.990,0.634,33.08
2026-02-13 16:29:31.777,4.600,0.027440,-0.012918,1.781426,1.095,-2.425,0.871,32.59
2026-02-13 16:29:31.877,4.700,0.033056,-0.015604,1.777032,1.011,-2.319,0.901,32.64
2026-02-13 16:29:31.977,4.800,0.035009,-0.015359,1.779962,1.171,-2.227,0.871,32.93
2026-02-13 16:29:32.077,4.900,0.029638,0.001975,1.777276,0.828,-2.074,0.787,32.98
2026-02-13 16:29:32.177,5.000,0.029394,-0.020242,1.777032,1.225,-2.357,0.520,32.98
2026-02-13 16:29:32.277,5.100,0.033300,-0.018777,1.774346,1.362,-2.341,0.527,32.78
2026-02-13 16:29:32.377,5.200,0.030126,-0.015115,1.769952,1.210,-2.174,0.795,33.08
2026-02-13 16:29:32.477,5.300,0.029638,-0.013406,1.778497,1.080,-2.204,0.665,33.08
2026-02-13 16:29:32.577,5.400,0.029638,-0.016336,1.781182,1.194,-2.479,0.627,32.74
2026-02-13 16:29:32.677,5.500,0.033056,-0.017801,1.763604,1.156,-1.883,0.764,32.83
2026-02-13 16:29:32.777,5.600,0.026952,-0.016824,1.785333,1.355,-2.258,0.375,32.78
2026-02-13 16:29:32.877,5.700,0.039892,-0.021463,1.772149,1.332,-2.227,0.581,32.93
2026-02-13 16:29:32.977,5.800,0.028417,-0.015848,1.773126,0.973,-2.418,0.817,32.64
2026-02-13 16:29:33.077,5.900,0.029394,-0.013162,1.779962,1.400,-2.112,0.848,32.83
2026-02-13 16:29:33.177,6.000,0.029394,-0.012918,1.777520,1.416,-2.280,0.627,33.08
2026-02-13 16:29:33.277,6.100,0.028905,-0.015848,1.777764,1.087,-2.349,0.917,32.98
2026-02-13 16:29:33.377,6.200,0.032812,-0.017801,1.774102,1.370,-2.471,0.924,32.78
2026-02-13 16:29:33.477,6.300,0.032079,-0.013406,1.777520,1.378,-2.082,0.978,33.13
2026-02-13 16:29:33.577,6.400,0.032079,-0.014871,1.778008,1.003,-2.578,0.672,32.93
2026-02-13 16:29:33.677,6.500,0.029638,-0.014139,1.775323,1.461,-2.334,0.917,32.98
2026-02-13 16:29:33.777,6.600,0.033056,-0.015115,1.781915,1.179,-2.128,0.436,32.98
2026-02-13 16:29:33.877,6.700,0.028417,-0.013650,1.779229,1.286,-2.242,0.863,32.83
2026-02-13 16:29:33.977,6.800,0.031835,-0.015359,1.780206,1.240,-2.525,0.848,32.93
2026-02-13 16:29:34.077,6.900,0.034765,-0.015359,1.772881,1.217,-1.975,0.878,32.83
2026-02-13 16:29:34.177,7.000,0.032567,-0.018289,1.775567,1.133,-2.464,0.756,33.32
2026-02-13 16:29:34.277,7.100,0.031835,-0.017313,1.777764,1.286,-2.151,0.543,32.74
2026-02-13 16:29:34.377,7.200,0.027440,-0.013650,1.775567,1.126,-2.410,0.688,33.13
2026-02-13 16:29:34.477,7.300,0.034521,-0.014383,1.775079,1.232,-2.624,0.634,32.93
2026-02-13 16:29:34.577,7.400,0.030126,-0.016580,1.777764,1.278,-2.334,0.520,32.98
2026-02-13 16:29:34.677,7.500,0.030126,-0.017801,1.779962,1.118,-2.349,0.764,33.08
2026-02-13 16:29:34.777,7.600,0.031591,-0.013650,1.779962,1.057,-2.006,1.062,33.08
2026-02-13 16:29:34.877,7.700,0.028661,-0.020730,1.781426,1.232,-2.548,0.871,32.98
2026-02-13 16:29:34.977,7.800,0.031347,-0.015115,1.780450,1.286,-2.097,0.642,33.08
2026-02-13 16:29:35.077,7.900,0.029638,-0.016092,1.777764,1.049,-2.380,0.642,32.98
2026-02-13 16:29:35.177,8.000,0.032567,-0.016580,1.771417,1.187,-2.341,0.795,32.93
2026-02-13 16:29:35.277,8.100,0.030614,-0.017313,1.771661,1.194,-2.181,0.856,32.83
2026-02-13 16:29:35.377,8.200,0.036229,-0.018289,1.777520,1.324,-2.403,0.726,32.83
2026-02-13 16:29:35.477,8.300,0.032812,-0.018289,1.773858,1.049,-2.120,0.695,32.93
2026-02-13 16:29:35.577,8.400,0.032079,-0.012918,1.781915,1.141,-2.616,0.825,33.13
2026-02-13 16:29:35.677,8.500,0.028905,-0.018045,1.783380,1.133,-2.013,0.856,32.93
2026-02-13 16:29:35.777,8.600,0.028661,-0.018045,1.771661,0.950,-2.181,0.878,32.78
2026-02-13 16:29:35.877,8.700,0.031103,-0.013650,1.773858,1.378,-2.212,0.871,32.59
2026-02-13 16:29:35.977,8.800,0.027440,-0.016580,1.774835,1.118,-2.303,0.604,32.93
2026-02-13 16:29:36.077,8.900,0.032079,-0.015604,1.778253,1.370,-2.227,0.474,32.93
2026-02-13 16:29:36.177,9.000,0.031835,-0.012430,1.778253,1.347,-2.242,0.703,32.93
2026-02-13 16:29:36.277,9.100,0.029638,-0.015359,1.776055,0.874,-2.334,0.856,32.83
2026-02-13 16:29:36.377,9.200,0.032323,-0.015848,1.772881,1.225,-2.349,0.718,32.74
2026-02-13 16:29:36.477,9.300,0.029149,-0.016336,1.767266,1.324,-2.158,0.581,33.08
2026-02-13 16:29:36.577,9.400,0.032323,-0.017313,1.778253,1.347,-2.464,0.726,32.83
2026-02-13 16:29:36.677,9.500,0.032567,-0.015848,1.777276,1.171,-2.135,1.016,32.59
2026-02-13 16:29:36.777,9.600,0.029882,-0.019510,1.775079,1.141,-2.349,0.955,33.08
2026-02-13 16:29:36.877,9.700,0.030614,-0.014627,1.778741,1.011,-2.403,0.703,32.78
2026-02-13 16:29:36.977,9.800,0.028417,-0.015359,1.779717,1.309,-2.357,0.718,32.78
2026-02-13 16:29:37.077,9.900,0.033788,-0.017068,1.778741,1.378,-2.158,0.573,32.83
2026-02-13 16:29:37.177,10.000,0.031835,-0.017557,1.771417,1.248,-2.410,0.398,33.08
2026-02-13 16:29:37.277,10.100,0.032567,-0.014627,1.777032,1.278,-2.349,0.932,32.78
2026-02-13 16:29:37.377,10.200,0.028905,-0.012918,1.770440,1.271,-2.341,0.543,33.08
2026-02-13 16:29:37.477,10.300,0.030126,-0.016824,1.774590,1.210,-2.196,0.695,32.78
2026-02-13 16:29:37.577,10.400,0.030858,-0.015848,1.780694,1.194,-2.403,0.985,32.78
2026-02-13 16:29:37.677,10.500,0.029394,-0.014871,1.779473,1.431,-2.395,0.718,32.78
2026-02-13 16:29:37.777,10.600,0.029882,-0.014871,1.778741,1.149,-2.372,0.497,32.83
2026-02-13 16:29:37.877,10.700,0.030370,-0.016824,1.779473,1.225,-2.334,1.123,32.98
2026-02-13 16:29:37.977,10.800,0.031591,-0.016336,1.775811,1.110,-2.494,1.169,32.93
2026-02-13 16:29:38.077,10.900,0.034032,-0.015359,1.774590,0.950,-2.204,0.726,32.98
2026-02-13 16:29:38.177,11.000,0.030370,-0.017313,1.774346,1.355,-2.341,0.917,32.93
2026-02-13 16:29:38.277,11.100,0.031591,-0.011209,1.773126,0.988,-2.196,0.665,32.78
2026-02-13 16:29:38.377,11.200,0.033300,-0.015848,1.776544,1.324,-2.273,0.649,32.78
2026-02-13 16:29:38.477,11.300,0.033300,-0.013406,1.777032,1.339,-2.433,0.802,32.83
2026-02-13 16:29:38.577,11.400,0.028661,-0.017068,1.777520,1.194,-2.105,0.962,32.64
2026-02-13 16:29:38.677,11.500,0.029882,-0.014139,1.776299,1.141,-2.204,0.657,33.08
2026-02-13 16:29:38.777,11.600,0.030614,-0.015359,1.774835,1.133,-2.044,0.878,33.08
2026-02-13 16:29:38.877,11.700,0.029882,-0.016580,1.772881,1.095,-2.273,0.657,32.93
2026-02-13 16:29:38.977,11.800,0.032812,-0.016580,1.779717,1.347,-2.151,0.543,33.08
2026-02-13 16:29:39.077,11.900,0.031835,-0.015604,1.777032,1.332,-2.242,0.940,32.93
2026-02-13 16:29:39.177,12.000,0.032079,-0.012430,1.783380,1.332,-2.418,0.749,33.08
2026-02-13 16:29:39.277,12.100,0.033300,-0.016336,1.778008,1.355,-2.280,0.795,32.78
2026-02-13 16:29:39.377,12.200,0.031835,-0.018045,1.777520,1.286,-2.387,0.810,32.98
2026-02-13 16:29:39.477,12.300,0.031591,-0.012186,1.774590,1.179,-2.319,0.405,33.08
2026-02-13 16:29:39.577,12.400,0.030126,-0.014627,1.772881,1.294,-2.471,0.787,32.78
2026-02-13 16:29:39.677,12.500,0.033056,-0.016824,1.778008,1.141,-2.158,1.016,32.74
2026-02-13 16:29:39.777,12.600,0.032079,-0.017801,1.775323,1.049,-2.074,0.878,32.78
2026-02-13 16:29:39.877,12.700,0.031835,-0.015848,1.776788,1.240,-2.319,0.772,33.08
2026-02-13 16:29:39.977,12.800,0.028173,-0.013650,1.780206,1.187,-2.380,0.871,32.93
2026-02-13 16:29:40.077,12.900,0.031347,-0.015115,1.778741,0.881,-2.395,1.077,32.59
2026-02-13 16:29:40.177,13.000,0.035497,-0.014139,1.774835,1.316,-2.074,0.764,33.08
2026-02-13 16:29:40.277,13.100,0.031591,-0.014139,1.775323,1.072,-2.403,0.932,32.83
2026-02-13 16:29:40.377,13.200,0.031347,-0.016336,1.771172,1.095,-2.326,0.940,32.83
2026-02-13 16:29:40.477,13.300,0.028905,-0.012674,1.783380,1.263,-2.067,0.764,32.83
2026-02-13 16:29:40.577,13.400,0.031103,-0.016580,1.778741,1.087,-2.105,0.726,33.08
2026-02-13 16:29:40.677,13.500,0.036229,-0.017068,1.774835,1.248,-2.273,0.726,33.08
2026-02-13 16:29:40.777,13.600,0.029394,-0.013162,1.778497,1.316,-2.174,0.703,33.27
2026-02-13 16:29:40.877,13.700,0.033544,-0.012430,1.786553,1.271,-2.410,0.909,32.83
2026-02-13 16:29:40.977,13.800,0.035497,-0.014383,1.777520,1.439,-2.059,0.733,32.78
2026-02-13 16:29:41.077,13.900,0.030126,-0.017801,1.779229,0.828,-2.372,1.039,32.83
2026-02-13 16:29:41.177,14.000,0.030126,-0.010965,1.778497,0.889,-2.311,0.878,32.74
2026-02-13 16:29:41.277,14.100,0.028905,-0.020242,1.775079,0.897,-1.990,0.901,32.78
2026-02-13 16:29:41.377,14.200,0.034521,-0.015115,1.778497,1.049,-2.090,0.901,32.98
2026-02-13 16:29:41.477,14.300,0.031103,-0.014139,1.776788,1.217,-2.654,0.955,32.93
2026-02-13 16:29:41.577,14.400,0.031347,-0.017068,1.773126,1.248,-2.296,0.588,32.93
2026-02-13 16:29:41.677,14.500,0.034521,-0.015604,1.778985,1.141,-2.204,1.031,32.83
2026-02-13 16:29:41.777,14.600,0.031591,-0.013895,1.777276,1.210,-2.288,0.993,32.93
2026-02-13 16:29:41.877,14.700,0.029394,-0.012674,1.778008,1.156,-2.280,0.795,32.98
2026-02-13 16:29:41.977,14.800,0.030126,-0.013650,1.773614,1.133,-2.280,0.924,32.98
2026-02-13 16:29:42.077,14.900,0.028661,-0.017068,1.777764,1.263,-2.380,0.558,32.78
2026-02-13 16:29:42.177,15.000,0.030858,-0.017557,1.780694,1.202,-2.349,0.924,32.78
2026-02-13 16:29:42.277,15.100,0.029638,-0.015848,1.776299,1.103,-2.395,0.779,32.83
2026-02-13 16:29:42.377,15.200,0.031103,-0.012186,1.777764,1.019,-2.219,0.703,32.98
2026-02-13 16:29:42.477,15.300,0.030370,-0.017313,1.773858,1.423,-2.334,0.711,32.83
2026-02-13 16:29:42.577,15.400,0.032567,-0.016092,1.775567,1.232,-2.196,0.787,32.93
2026-02-13 16:29:42.677,15.500,0.032567,-0.017557,1.776299,1.232,-2.464,0.795,32.74
2026-02-13 16:29:42.777,15.600,0.029149,-0.014383,1.776299,1.255,-2.296,0.711,32.98
2026-02-13 16:29:42.877,15.700,0.027929,-0.013650,1.773614,1.217,-2.097,0.947,33.08
2026-02-13 16:29:42.977,15.800,0.030614,-0.013162,1.779717,1.484,-2.158,0.993,33.08
2026-02-13 16:29:43.077,15.900,0.033300,-0.014627,1.776299,1.156,-2.067,0.749,32.83
2026-02-13 16:29:43.177,16.000,0.030858,-0.015604,1.778253,1.110,-2.258,0.474,32.93
2026-02-13 16:29:43.277,16.100,0.026952,-0.015604,1.777276,1.347,-2.288,0.634,32.93
2026-02-13 16:29:43.377,16.200,0.030370,-0.015604,1.775079,1.179,-2.349,0.833,32.93
2026-02-13 16:29:43.477,16.300,0.030614,-0.017801,1.773614,1.248,-2.166,0.749,32.98
2026-02-13 16:29:43.577,16.400,0.029394,-0.013406,1.777032,1.194,-2.326,0.848,32.83
2026-02-13 16:29:43.677,16.500,0.031103,-0.015848,1.774835,1.240,-2.418,0.634,32.83
2026-02-13 16:29:43.777,16.600,0.032323,-0.014627,1.775811,1.217,-2.273,0.764,32.98
2026-02-13 16:29:43.877,16.700,0.027929,-0.017557,1.774590,1.179,-2.372,1.107,32.78
2026-02-13 16:29:43.977,16.800,0.030858,-0.013895,1.771905,1.294,-2.326,0.962,32.74
2026-02-13 16:29:44.077,16.900,0.031591,-0.018777,1.775079,1.477,-2.380,0.733,32.93
2026-02-13 16:29:44.177,17.000,0.030370,-0.014627,1.776544,1.263,-2.448,0.779,32.98
2026-02-13 16:29:44.277,17.100,0.032323,-0.015848,1.776299,1.202,-2.105,0.962,33.08
2026-02-13 16:29:44.377,17.200,0.030126,-0.012674,1.779473,1.141,-2.204,0.764,32.98
2026-02-13 16:29:44.477,17.300,0.030614,-0.015604,1.779962,1.149,-2.258,0.894,33.13
2026-02-13 16:29:44.577,17.400,0.031103,-0.015848,1.777276,0.950,-2.235,0.550,32.98
2026-02-13 16:29:44.677,17.500,0.029638,-0.013650,1.778008,1.133,-2.326,0.825,32.98
2026-02-13 16:29:44.777,17.600,0.030126,-0.019022,1.771905,1.103,-2.288,0.840,32.83
2026-02-13 16:29:44.877,17.700,0.029882,-0.018533,1.776544,1.210,-2.250,0.787,32.93
2026-02-13 16:29:44.977,17.800,0.032079,-0.015115,1.777032,1.118,-2.090,0.535,32.83
2026-02-13 16:29:45.077,17.900,0.028173,-0.017068,1.779473,1.225,-2.288,0.863,33.18
2026-02-13 16:29:45.177,18.000,0.028905,-0.016336,1.778985,1.034,-2.181,0.695,33.08
2026-02-13 16:29:45.277,18.100,0.030126,-0.013895,1.778253,1.210,-2.219,0.695,32.83
2026-02-13 16:29:45.377,18.200,0.030126,-0.017313,1.772637,1.271,-2.357,0.741,33.13
2026-02-13 16:29:45.477,18.300,0.032079,-0.015115,1.778253,1.149,-2.418,0.779,32.78
2026-02-13 16:29:45.577,18.400,0.034521,-0.015848,1.774102,1.316,-2.128,0.703,32.83
2026-02-13 16:29:45.677,18.500,0.034765,-0.013650,1.775079,1.225,-2.418,0.856,32.93
2026-02-13 16:29:45.777,18.600,0.031347,-0.015359,1.777032,1.271,-2.380,0.787,32.93
2026-02-13 16:29:45.877,18.700,0.032079,-0.020486,1.774102,1.294,-2.387,0.695,33.08
2026-02-13 16:29:45.977,18.800,0.032567,-0.017801,1.774102,1.080,-1.952,0.878,32.83
2026-02-13 16:29:46.077,18.900,0.031835,-0.015604,1.775323,1.271,-2.189,0.894,32.93
2026-02-13 16:29:46.177,19.000,0.034032,-0.017313,1.773858,1.034,-2.158,0.466,33.08
2026-02-13 16:29:46.277,19.100,0.030126,-0.009500,1.782403,1.171,-2.265,0.787,32.78
2026-02-13 16:29:46.377,19.200,0.028661,-0.009988,1.772881,1.065,-2.311,0.772,33.18
2026-02-13 16:29:46.477,19.300,0.031591,-0.015359,1.777032,1.133,-2.135,1.153,32.78
2026-02-13 16:29:46.577,19.400,0.030858,-0.015115,1.776544,1.316,-2.418,1.001,32.98
2026-02-13 16:29:46.677,19.500,0.032079,-0.013650,1.774835,1.301,-2.326,0.619,32.78
2026-02-13 16:29:46.777,19.600,0.029638,-0.012674,1.774835,0.973,-2.357,0.550,32.98
2026-02-13 16:29:46.877,19.700,0.033788,-0.014383,1.777032,1.309,-2.235,0.901,33.13
2026-02-13 16:29:46.977,19.800,0.029638,-0.014139,1.777764,1.347,-2.288,0.711,32.83
2026-02-13 16:29:47.077,19.900,0.026464,-0.011453,1.774346,1.271,-2.296,0.566,32.98
2026-02-13 16:29:47.177,20.000,0.033300,-0.012430,1.781182,1.248,-2.357,0.917,33.08
2026-02-13 16:29:47.277,20.100,0.033056,-0.011941,1.777032,1.332,-2.403,0.726,32.93
2026-02-13 16:29:47.377,20.200,0.028173,-0.020975,1.770928,1.156,-2.425,0.649,32.83
2026-02-13 16:29:47.477,20.300,0.033056,-0.012918,1.771905,1.576,-2.265,0.474,32.83
2026-02-13 16:29:47.577,20.400,0.031347,-0.015115,1.774346,1.118,-2.509,0.596,33.08
2026-02-13 16:29:47.677,20.500,0.028173,-0.015848,1.774590,0.851,-2.464,0.588,32.83
2026-02-13 16:29:47.777,20.600,0.031591,-0.012430,1.776788,1.309,-2.395,0.894,32.93
2026-02-13 16:29:47.877,20.700,0.030126,-0.015115,1.774102,1.095,-2.311,0.817,32.98
2026-02-13 16:29:47.977,20.800,0.032812,-0.016824,1.776788,1.194,-2.227,0.779,33.08
2026-02-13 16:29:48.077,20.900,0.029882,-0.015848,1.775811,1.126,-2.242,0.825,32.59
2026-02-13 16:29:48.177,21.000,0.029638,-0.016824,1.779717,1.095,-2.196,0.802,32.78
2026-02-13 16:29:48.277,21.100,0.030858,-0.016336,1.774590,1.080,-2.509,0.665,32.78
2026-02-13 16:29:48.377,21.200,0.027685,-0.016336,1.768731,1.110,-2.387,0.802,32.83
2026-02-13 16:29:48.477,21.300,0.031347,-0.013650,1.774835,1.164,-2.303,0.932,32.78
2026-02-13 16:29:48.577,21.400,0.028661,-0.012918,1.780694,1.316,-2.212,0.955,33.08
2026-02-13 16:29:48.677,21.500,0.031591,-0.015604,1.774346,1.217,-2.120,0.863,32.59
2026-02-13 16:29:48.777,21.600,0.029882,-0.015848,1.775079,1.110,-2.418,1.016,33.08
2026-02-13 16:29:48.877,21.700,0.029638,-0.013650,1.777276,1.301,-2.448,1.222,32.83
2026-02-13 16:29:48.977,21.800,0.029882,-0.013162,1.773370,1.080,-2.227,0.711,32.78
2026-02-13 16:29:49.077,21.900,0.025243,-0.012918,1.772393,1.171,-2.364,0.993,32.93
2026-02-13 16:29:49.177,22.000,0.031591,-0.014139,1.774590,1.393,-2.303,0.596,33.08
2026-02-13 16:29:49.277,22.100,0.026952,-0.014139,1.777032,1.400,-2.425,0.627,32.93
2026-02-13 16:29:49.377,22.200,0.032079,-0.013406,1.775323,1.339,-2.219,0.833,32.98
2026-02-13 16:29:49.477,22.300,0.025487,-0.015115,1.781182,1.286,-2.105,0.962,33.08
2026-02-13 16:29:49.577,22.400,0.031103,-0.016580,1.775079,1.232,-2.250,0.810,32.83
2026-02-13 16:29:49.677,22.500,0.031835,-0.018289,1.777520,0.981,-2.548,0.878,32.98
2026-02-13 16:29:49.777,22.600,0.030614,-0.018045,1.776299,1.316,-2.471,0.863,32.98
2026-02-13 16:29:49.877,22.700,0.031835,-0.013162,1.775323,1.362,-2.158,0.970,33.08
2026-02-13 16:29:49.977,22.800,0.028417,-0.020975,1.776544,1.378,-2.433,0.665,32.98
2026-02-13 16:29:50.077,22.900,0.033544,-0.018045,1.775323,1.301,-2.227,0.833,32.78
2026-02-13 16:29:50.177,23.000,0.027929,-0.010721,1.780450,1.232,-2.288,0.848,32.74
2026-02-13 16:29:50.277,23.100,0.033788,-0.012918,1.778985,1.278,-2.151,0.947,32.93
2026-02-13 16:29:50.377,23.200,0.029882,-0.018045,1.772149,1.301,-2.112,0.642,32.59
2026-02-13 16:29:50.477,23.300,0.029882,-0.017801,1.771661,1.339,-2.196,0.940,33.08
2026-02-13 16:29:50.577,23.400,0.031103,-0.017313,1.769464,1.309,-2.364,0.359,33.08
2026-02-13 16:29:50.677,23.500,0.029638,-0.014627,1.780450,1.263,-2.326,0.718,33.13
2026-02-13 16:29:50.777,23.600,0.033544,-0.016824,1.780450,1.217,-2.418,1.008,33.08
2026-02-13 16:29:50.877,23.700,0.031103,-0.016336,1.775079,1.072,-2.395,0.878,32.98
2026-02-13 16:29:50.977,23.800,0.027440,-0.014871,1.772637,0.973,-2.105,0.833,33.08
2026-02-13 16:29:51.077,23.900,0.033300,-0.015604,1.773858,1.011,-2.120,0.772,33.08
2026-02-13 16:29:51.177,24.000,0.032323,-0.015604,1.777032,1.103,-2.387,0.558,32.78
2026-02-13 16:29:51.277,24.100,0.029882,-0.015359,1.775079,1.255,-2.296,0.550,32.78
2026-02-13 16:29:51.377,24.200,0.030858,-0.012186,1.771417,1.065,-2.227,0.764,32.93
2026-02-13 16:29:51.477,24.300,0.031103,-0.013895,1.778253,1.309,-2.273,0.482,32.98
2026-02-13 16:29:51.577,24.400,0.032567,-0.017313,1.777032,0.973,-2.166,0.924,32.98
2026-02-13 16:29:51.677,24.500,0.032079,-0.014139,1.775323,1.217,-2.456,0.810,32.93
2026-02-13 16:29:51.777,24.600,0.034521,-0.017557,1.775079,1.240,-2.341,0.940,33.13
2026-02-13 16:29:51.877,24.700,0.029638,-0.017068,1.778985,1.149,-2.235,0.596,33.08
2026-02-13 16:29:51.977,24.800,0.028661,-0.015848,1.769952,1.141,-2.372,0.894,32.64
2026-02-13 16:29:52.077,24.900,0.033544,-0.016092,1.778741,1.171,-2.296,0.825,32.98
2026-02-13 16:29:52.177,25.000,0.030858,-0.014871,1.773858,1.179,-2.525,0.848,32.83
2026-02-13 16:29:52.277,25.100,0.026220,-0.016092,1.779229,1.164,-2.433,0.848,32.74
2026-02-13 16:29:52.377,25.200,0.032079,-0.017068,1.778985,1.454,-2.296,1.069,32.93
2026-02-13 16:29:52.477,25.300,0.031347,-0.013406,1.777764,1.187,-2.174,0.443,32.78
2026-02-13 16:29:52.577,25.400,0.025731,-0.018777,1.778253,1.080,-2.280,0.695,33.13
2026-02-13 16:29:52.677,25.500,0.032323,-0.016092,1.780450,1.202,-2.441,0.741,33.18
2026-02-13 16:29:52.777,25.600,0.026952,-0.016336,1.772881,1.095,-2.036,0.779,33.08
2026-02-13 16:29:52.877,25.700,0.028661,-0.015115,1.774102,1.255,-2.311,0.695,33.08
2026-02-13 16:29:52.977,25.800,0.031347,-0.017313,1.777032,1.232,-2.120,0.588,32.78
2026-02-13 16:29:53.077,25.900,0.027929,-0.016336,1.777520,1.240,-2.135,0.917,33.13
2026-02-13 16:29:53.177,26.000,0.032079,-0.016336,1.774346,1.080,-2.311,1.100,33.08
2026-02-13 16:29:53.277,26.100,0.029394,-0.014383,1.777032,1.286,-2.296,0.756,32.83
2026-02-13 16:29:53.377,26.200,0.033056,-0.015359,1.772881,1.286,-2.273,0.940,32.83
2026-02-13 16:29:53.477,26.300,0.026220,-0.016092,1.772393,1.034,-2.311,0.711,32.78
2026-02-13 16:29:53.577,26.400,0.030858,-0.015359,1.777764,1.225,-2.265,0.962,32.98
2026-02-13 16:29:53.677,26.500,0.029638,-0.015115,1.773858,1.271,-2.380,0.871,32.98
2026-02-13 16:29:53.777,26.600,0.034032,-0.014139,1.777276,0.958,-2.357,0.810,33.13
2026-02-13 16:29:53.877,26.700,0.034276,-0.015359,1.774102,1.355,-2.273,0.802,32.59
2026-02-13 16:29:53.977,26.800,0.029882,-0.014139,1.779717,1.080,-2.296,0.856,32.98
2026-02-13 16:29:54.077,26.900,0.031591,-0.014627,1.777764,1.118,-2.395,0.787,32.83
2026-02-13 16:29:54.177,27.000,0.029394,-0.012918,1.779962,1.034,-2.334,0.741,32.78
2026-02-13 16:29:54.277,27.100,0.031347,-0.018045,1.775323,1.210,-2.250,1.275,32.64
2026-02-13 16:29:54.377,27.200,0.030614,-0.016336,1.778741,1.110,-2.189,0.787,32.93
2026-02-13 16:29:54.477,27.300,0.029638,-0.016580,1.783135,1.286,-2.311,0.688,32.83
2026-02-13 16:29:54.577,27.400,0.030614,-0.014383,1.779229,1.202,-2.464,0.779,33.08
2026-02-13 16:29:54.677,27.500,0.027685,-0.015604,1.777032,1.240,-2.242,0.657,32.78
2026-02-13 16:29:54.777,27.600,0.029149,-0.011453,1.771905,1.103,-2.593,0.817,32.78
2026-02-13 16:29:54.877,27.700,0.031591,-0.013162,1.771417,1.309,-2.364,0.894,32.98
2026-02-13 16:29:54.977,27.800,0.029149,-0.014139,1.777764,1.080,-2.433,0.932,32.93
2026-02-13 16:29:55.077,27.900,0.031835,-0.017068,1.775811,1.141,-2.341,0.665,33.08
2026-02-13 16:29:55.177,28.000,0.028661,-0.016336,1.775079,1.469,-2.120,0.878,32.98
2026-02-13 16:29:55.277,28.100,0.031591,-0.015115,1.775811,1.232,-2.403,0.695,32.98
2026-02-13 16:29:55.377,28.200,0.029149,-0.019754,1.782159,0.927,-2.258,0.520,33.08
2026-02-13 16:29:55.477,28.300,0.034032,-0.015115,1.779473,1.378,-2.097,0.733,32.98
2026-02-13 16:29:55.577,28.400,0.028905,-0.013895,1.781915,1.248,-2.364,0.795,32.83
2026-02-13 16:29:55.677,28.500,0.027929,-0.012186,1.782647,1.126,-2.189,0.642,32.64
2026-02-13 16:29:55.777,28.600,0.032323,-0.014627,1.773126,1.362,-1.998,0.772,32.83
2026-02-13 16:29:55.877,28.700,0.033544,-0.015604,1.778985,1.332,-2.380,1.001,33.08
2026-02-13 16:29:55.977,28.800,0.028661,-0.014627,1.773126,1.225,-2.487,0.627,32.98
2026-02-13 16:29:56.077,28.900,0.031103,-0.012674,1.779717,1.003,-2.196,0.596,33.08
2026-02-13 16:29:56.177,29.000,0.030126,-0.014383,1.774346,1.110,-1.975,0.741,32.74
2026-02-13 16:29:56.277,29.100,0.032812,-0.017557,1.779962,1.210,-2.311,0.756,32.98
2026-02-13 16:29:56.377,29.200,0.036718,-0.017068,1.780206,1.126,-2.387,0.795,32.98
2026-02-13 16:29:56.477,29.300,0.024755,-0.015604,1.779229,1.408,-2.120,0.733,32.78
2026-02-13 16:29:56.577,29.400,0.032567,-0.013895,1.779962,1.355,-2.326,1.039,32.83
2026-02-13 16:29:56.677,29.500,0.027685,-0.015604,1.771661,1.324,-2.196,0.825,32.98
2026-02-13 16:29:56.777,29.600,0.031103,-0.013406,1.775079,1.011,-2.357,0.718,33.08
2026-02-13 16:29:56.877,29.700,0.032812,-0.017557,1.779229,1.080,-2.067,0.810,32.78
2026-02-13 16:29:56.977,29.800,0.031347,-0.013406,1.776788,1.362,-2.174,0.558,32.98
2026-02-13 16:29:57.077,29.900,0.031835,-0.013895,1.770684,0.988,-2.196,0.802,32.78
2026-02-13 16:29:57.177,30.000,0.030126,-0.018289,1.781426,1.355,-2.296,0.833,33.08
2026-02-13 16:29:57.277,30.100,0.032323,-0.017313,1.779473,1.133,-2.479,0.596,33.08
2026-02-13 16:29:57.377,30.200,0.029149,-0.016092,1.775567,1.187,-2.464,0.886,32.98
2026-02-13 16:29:57.477,30.300,0.028905,-0.015848,1.774835,1.378,-2.372,0.894,32.98
2026-02-13 16:29:57.577,30.400,0.031835,-0.019022,1.775811,1.149,-2.128,0.825,32.78
2026-02-13 16:29:57.677,30.500,0.029882,-0.015848,1.778741,1.141,-2.219,0.848,32.83
2026-02-13 16:29:57.777,30.600,0.032323,-0.014627,1.779717,1.210,-2.441,1.024,33.08
2026-02-13 16:29:57.877,30.700,0.031103,-0.014871,1.774102,1.339,-2.517,0.787,32.93
2026-02-13 16:29:57.977,30.800,0.034276,-0.017801,1.777520,1.202,-2.532,0.520,33.13
2026-02-13 16:29:58.077,30.900,0.034032,-0.014871,1.772881,1.019,-2.326,0.436,32.98
2026-02-13 16:29:58.177,31.000,0.031103,-0.015848,1.772393,1.400,-2.158,0.909,33.08
2026-02-13 16:29:58.277,31.100,0.032812,-0.018289,1.773858,1.484,-2.578,0.619,32.83
2026-02-13 16:29:58.377,31.200,0.029149,-0.017313,1.779229,1.347,-2.349,0.604,32.83
2026-02-13 16:29:58.477,31.300,0.028417,-0.015604,1.777764,1.141,-2.189,1.024,32.98
2026-02-13 16:29:58.577,31.400,0.033056,-0.015115,1.772637,1.324,-2.265,0.672,32.98
2026-02-13 16:29:58.677,31.500,0.031835,-0.016580,1.774346,1.294,-2.456,0.848,33.27
2026-02-13 16:29:58.777,31.600,0.029638,-0.016824,1.777276,1.210,-2.051,0.711,32.98
2026-02-13 16:29:58.877,31.700,0.028905,-0.013162,1.777764,1.171,-2.288,0.947,32.83
2026-02-13 16:29:58.977,31.800,0.032323,-0.016336,1.777276,1.072,-2.464,0.978,32.83
2026-02-13 16:29:59.077,31.900,0.033788,-0.013162,1.771417,0.996,-2.380,0.718,32.93
2026-02-13 16:29:59.177,32.000,0.027685,-0.018533,1.779717,1.149,-2.403,0.901,32.93
2026-02-13 16:29:59.277,32.100,0.030370,-0.017313,1.778741,1.042,-2.296,0.504,33.08
2026-02-13 16:29:59.377,32.200,0.030126,-0.017068,1.781426,1.309,-2.395,0.733,33.08
2026-02-13 16:29:59.477,32.300,0.027929,-0.010965,1.774590,1.324,-2.319,0.733,32.98
2026-02-13 16:29:59.577,32.400,0.031835,-0.013162,1.775567,1.072,-2.364,0.978,32.78
2026-02-13 16:29:59.677,32.500,0.029882,-0.013650,1.772393,1.026,-2.433,0.749,32.83
2026-02-13 16:29:59.777,32.600,0.028417,-0.013650,1.779962,1.080,-2.349,0.657,33.08
2026-02-13 16:29:59.877,32.700,0.034276,-0.013162,1.777520,1.316,-2.319,0.703,33.08
2026-02-13 16:29:59.977,32.800,0.033056,-0.014871,1.776299,1.042,-2.273,1.107,32.98
2026-02-13 16:30:00.077,32.900,0.032812,-0.015115,1.777764,1.057,-2.357,0.627,32.78
2026-02-13 16:30:00.177,33.000,0.029394,-0.015848,1.778253,1.049,-2.006,0.840,33.27
2026-02-13 16:30:00.277,33.100,0.027196,-0.017801,1.780450,1.225,-2.204,0.733,32.98
2026-02-13 16:30:00.377,33.200,0.027929,-0.016824,1.777520,1.095,-2.280,0.848,32.78
2026-02-13 16:30:00.477,33.300,0.031103,-0.015604,1.768731,1.179,-2.311,0.894,32.74
2026-02-13 16:30:00.577,33.400,0.033788,-0.011941,1.767999,1.202,-2.135,0.962,32.78
2026-02-13 16:30:00.677,33.500,0.031835,-0.014627,1.778985,1.087,-2.372,0.733,32.83
2026-02-13 16:30:00.777,33.600,0.029638,-0.015359,1.776299,1.339,-2.380,0.588,33.08
2026-02-13 16:30:00.877,33.700,0.028905,-0.016824,1.782159,0.996,-2.586,0.924,32.98
2026-02-13 16:30:00.977,33.800,0.030614,-0.015359,1.774590,1.011,-2.464,1.115,32.98
2026-02-13 16:30:01.077,33.900,0.032567,-0.016092,1.775079,1.217,-2.296,0.596,32.98
2026-02-13 16:30:01.177,34.000,0.033056,-0.011941,1.770440,1.347,-2.258,0.901,32.98
2026-02-13 16:30:01.277,34.100,0.033300,-0.016824,1.777276,1.225,-2.242,0.504,32.98
2026-02-13 16:30:01.377,34.200,0.030614,-0.017313,1.781671,1.126,-2.258,0.924,32.83
2026-02-13 16:30:01.477,34.300,0.029882,-0.016824,1.773370,1.309,-2.532,0.871,32.93
2026-02-13 16:30:01.577,34.400,0.029394,-0.013162,1.778008,1.080,-2.219,0.779,32.93
2026-02-13 16:30:01.677,34.500,0.027196,-0.017801,1.778008,1.446,-2.303,0.649,33.13
2026-02-13 16:30:01.777,34.600,0.029394,-0.013406,1.772881,1.049,-2.288,0.680,32.54
2026-02-13 16:30:01.877,34.700,0.030858,-0.017801,1.778741,1.378,-2.380,1.001,32.78
2026-02-13 16:30:01.977,34.800,0.028417,-0.011453,1.777764,1.141,-2.074,0.856,32.93
2026-02-13 16:30:02.077,34.900,0.035985,-0.018533,1.773370,1.232,-2.311,0.642,32.98
2026-02-13 16:30:02.177,35.000,0.031347,-0.019022,1.779717,1.011,-2.112,0.543,32.78
2026-02-13 16:30:02.277,35.100,0.029882,-0.019998,1.775567,1.294,-2.120,0.802,32.83
2026-02-13 16:30:02.377,35.200,0.033056,-0.016092,1.780206,0.950,-2.120,0.932,32.98
2026-02-13 16:30:02.477,35.300,0.031347,-0.020975,1.780938,1.423,-2.532,0.856,32.83
2026-02-13 16:30:02.577,35.400,0.030614,-0.018777,1.778741,1.286,-2.425,0.817,32.64
2026-02-13 16:30:02.677,35.500,0.027929,-0.012918,1.776788,1.248,-2.235,0.596,32.93
2026-02-13 16:30:02.777,35.600,0.029882,-0.015604,1.782403,1.294,-2.341,1.024,32.83
2026-02-13 16:30:02.877,35.700,0.031347,-0.014383,1.775567,0.897,-2.258,0.680,32.59
2026-02-13 16:30:02.977,35.800,0.031347,-0.017068,1.778985,1.171,-2.364,0.863,32.98
2026-02-13 16:30:03.077,35.900,0.030858,-0.015359,1.774835,1.164,-2.425,1.107,32.74
2026-02-13 16:30:03.177,36.000,0.032323,-0.011941,1.777276,1.072,-2.013,0.482,32.83
2026-02-13 16:30:03.277,36.100,0.033300,-0.017313,1.774835,1.194,-2.258,0.619,33.13
2026-02-13 16:30:03.377,36.200,0.034276,-0.012674,1.771905,1.400,-2.280,0.726,33.13
2026-02-13 16:30:03.477,36.300,0.029149,-0.014139,1.773370,1.217,-2.181,0.718,33.08
2026-02-13 16:30:03.577,36.400,0.029638,-0.017557,1.774835,0.942,-2.242,0.856,33.08
2026-02-13 16:30:03.677,36.500,0.027685,-0.013895,1.773370,1.324,-2.418,0.611,32.78
2026-02-13 16:30:03.777,36.600,0.028417,-0.016336,1.782403,1.019,-2.273,0.810,32.74
2026-02-13 16:30:03.877,36.700,0.030370,-0.015359,1.774590,1.278,-2.593,0.917,32.83
2026-02-13 16:30:03.977,36.800,0.031347,-0.013895,1.775079,1.194,-2.311,0.924,32.83
2026-02-13 16:30:04.077,36.900,0.031347,-0.013406,1.777764,1.110,-2.158,0.917,32.98
2026-02-13 16:30:04.177,37.000,0.033056,-0.018045,1.774835,1.309,-2.464,0.833,32.78
2026-02-13 16:30:04.277,37.100,0.032323,-0.015115,1.780206,1.347,-2.464,0.741,32.98
2026-02-13 16:30:04.377,37.200,0.034032,-0.014871,1.778741,1.286,-2.296,0.550,32.83
2026-02-13 16:30:04.477,37.300,0.030370,-0.014139,1.776055,1.286,-2.349,0.779,32.64
2026-02-13 16:30:04.577,37.400,0.031103,-0.018777,1.778008,1.065,-2.364,0.733,33.08
2026-02-13 16:30:04.677,37.500,0.032323,-0.014627,1.774590,1.164,-2.265,0.909,32.98
2026-02-13 16:30:04.777,37.600,0.032567,-0.017801,1.779229,1.271,-2.280,0.680,33.08
2026-02-13 16:30:04.877,37.700,0.032323,-0.014139,1.775079,1.271,-2.296,0.955,32.98
2026-02-13 16:30:04.977,37.800,0.027929,-0.016824,1.771417,1.545,-2.151,0.795,32.83
2026-02-13 16:30:05.077,37.900,0.033056,-0.015848,1.770928,1.232,-2.349,0.817,33.08
2026-02-13 16:30:05.177,38.000,0.032323,-0.015115,1.777764,1.515,-2.319,1.039,32.78
2026-02-13 16:30:05.277,38.100,0.030614,-0.019998,1.780938,1.141,-2.341,0.871,33.32
2026-02-13 16:30:05.377,38.200,0.031835,-0.013650,1.784844,1.103,-2.204,0.703,32.93
2026-02-13 16:30:05.477,38.300,0.026464,-0.013895,1.779229,1.240,-2.189,0.940,32.59
2026-02-13 16:30:05.577,38.400,0.031103,-0.012186,1.770196,1.370,-2.357,0.856,33.13
2026-02-13 16:30:05.677,38.500,0.028905,-0.011697,1.779229,1.194,-2.158,0.619,32.93
2026-02-13 16:30:05.777,38.600,0.030126,-0.018533,1.777032,1.355,-2.319,0.909,32.78
2026-02-13 16:30:05.877,38.700,0.033544,-0.015115,1.778253,1.057,-2.280,0.787,32.83
2026-02-13 16:30:05.977,38.800,0.034032,-0.013406,1.776299,1.110,-2.128,0.611,33.08
2026-02-13 16:30:06.077,38.900,0.034765,-0.014139,1.776055,1.278,-2.273,0.665,33.13
2026-02-13 16:30:06.177,39.000,0.030126,-0.016092,1.773370,1.156,-2.143,0.573,32.93
2026-02-13 16:30:06.277,39.100,0.033544,-0.012918,1.778008,1.042,-2.303,0.649,32.98
2026-02-13 16:30:06.377,39.200,0.028661,-0.014383,1.773370,0.858,-2.090,0.657,33.13
2026-02-13 16:30:06.477,39.300,0.032323,-0.016580,1.771172,1.057,-2.181,0.688,33.08
2026-02-13 16:30:06.577,39.400,0.032079,-0.013650,1.778985,1.095,-2.349,0.856,33.13
2026-02-13 16:30:06.677,39.500,0.031103,-0.012430,1.770440,1.255,-2.380,0.871,33.08
2026-02-13 16:30:06.777,39.600,0.029638,-0.010232,1.782403,1.019,-2.265,0.802,32.64
2026-02-13 16:30:06.877,39.700,0.027685,-0.017313,1.775567,0.919,-2.151,0.787,32.64
2026-02-13 16:30:06.977,39.800,0.034521,-0.017068,1.776544,1.286,-2.380,0.672,33.08
2026-02-13 16:30:07.077,39.900,0.029394,-0.015115,1.771661,1.065,-2.135,0.680,32.93
2026-02-13 16:30:07.177,40.000,0.030614,-0.018289,1.774346,1.156,-2.143,0.649,32.83
2026-02-13 16:30:07.277,40.100,0.030614,-0.016580,1.775079,1.026,-2.288,0.917,32.93
2026-02-13 16:30:07.377,40.200,0.032567,-0.011209,1.772881,1.133,-2.105,0.772,32.98
2026-02-13 16:30:07.477,40.300,0.032079,-0.014871,1.774590,1.400,-2.311,0.840,33.08
2026-02-13 16:30:07.577,40.400,0.028905,-0.017313,1.773126,1.049,-2.433,1.031,32.98
2026-02-13 16:30:07.677,40.500,0.030126,-0.014383,1.772393,1.232,-2.189,1.008,32.83
2026-02-13 16:30:07.777,40.600,0.035009,-0.013895,1.776544,1.072,-2.364,0.787,32.93
2026-02-13 16:30:07.877,40.700,0.033056,-0.012918,1.777032,1.103,-2.303,0.604,33.27
2026-02-13 16:30:07.977,40.800,0.031103,-0.013650,1.775323,1.126,-2.189,0.878,33.13
2026-02-13 16:30:08.077,40.900,0.035497,-0.013650,1.774835,1.034,-2.204,0.856,32.74
2026-02-13 16:30:08.177,41.000,0.030126,-0.013650,1.774102,1.278,-2.280,0.657,33.32
2026-02-13 16:30:08.277,41.100,0.033056,-0.014627,1.774346,1.057,-2.273,0.604,33.08
2026-02-13 16:30:08.377,41.200,0.029149,-0.014627,1.776055,1.042,-2.189,0.894,32.98
2026-02-13 16:30:08.477,41.300,0.030370,-0.014383,1.772149,1.423,-2.265,1.016,32.78
2026-02-13 16:30:08.577,41.400,0.031103,-0.015115,1.770928,1.103,-2.433,0.588,32.98
2026-02-13 16:30:08.677,41.500,0.031835,-0.015604,1.781915,1.370,-2.296,0.795,33.08
2026-02-13 16:30:08.777,41.600,0.030126,-0.016580,1.776055,1.248,-2.273,0.558,33.08
2026-02-13 16:30:08.877,41.700,0.033056,-0.016092,1.777276,1.355,-2.296,0.940,33.27
2026-02-13 16:30:08.977,41.800,0.034032,-0.014871,1.776788,1.126,-2.288,0.795,32.78
2026-02-13 16:30:09.077,41.900,0.033056,-0.013162,1.778008,1.324,-2.189,0.909,32.74
2026-02-13 16:30:09.177,42.000,0.030858,-0.017801,1.777276,1.286,-2.494,0.779,32.64
2026-02-13 16:30:09.277,42.100,0.031591,-0.012430,1.774590,1.095,-2.319,0.802,32.78
2026-02-13 16:30:09.377,42.200,0.029394,-0.018289,1.776055,1.049,-2.181,0.795,32.83
2026-02-13 16:30:09.477,42.300,0.033056,-0.018533,1.777520,1.225,-2.143,0.886,32.98
2026-02-13 16:30:09.577,42.400,0.031591,-0.016092,1.773126,1.271,-2.151,0.695,32.93
2026-02-13 16:30:09.677,42.500,0.033788,-0.016336,1.777520,1.026,-2.296,0.588,32.98
2026-02-13 16:30:09.777,42.600,0.029638,-0.016824,1.775323,1.232,-2.273,0.848,33.13
2026-02-13 16:30:09.877,42.700,0.031591,-0.016092,1.779962,1.179,-2.258,0.955,33.08
2026-02-13 16:30:09.977,42.800,0.030614,-0.014139,1.775079,1.141,-2.395,0.772,32.98
2026-02-13 16:30:10.077,42.900,0.028905,-0.016092,1.778008,1.217,-2.303,0.649,33.08
2026-02-13 16:30:10.177,43.000,0.032567,-0.015604,1.778008,1.263,-2.334,0.833,32.83
2026-02-13 16:30:10.277,43.100,0.031347,-0.015115,1.771905,1.149,-2.250,0.848,33.08
2026-02-13 16:30:10.377,43.200,0.032812,-0.016824,1.773126,1.026,-2.166,0.886,33.13
2026-02-13 16:30:10.477,43.300,0.029638,-0.015115,1.776544,1.179,-2.151,0.810,33.08
2026-02-13 16:30:10.577,43.400,0.031103,-0.018777,1.781426,1.477,-2.326,0.627,32.83
2026-02-13 16:30:10.677,43.500,0.030126,-0.015359,1.776544,1.087,-2.250,0.810,33.13
2026-02-13 16:30:10.777,43.600,0.028661,-0.018045,1.777520,0.881,-2.151,0.817,33.13
2026-02-13 16:30:10.877,43.700,0.033300,-0.013895,1.769952,1.171,-2.364,0.779,32.98
2026-02-13 16:30:10.977,43.800,0.030858,-0.014627,1.778008,1.294,-2.372,0.940,33.13
2026-02-13 16:30:11.077,43.900,0.028173,-0.014627,1.771661,1.141,-2.250,0.756,33.08
2026-02-13 16:30:11.177,44.000,0.031347,-0.015115,1.778008,1.278,-2.112,0.749,32.93
2026-02-13 16:30:11.277,44.100,0.031591,-0.017557,1.773614,1.065,-1.967,0.680,32.59
2026-02-13 16:30:11.377,44.200,0.031591,-0.015115,1.779229,1.164,-2.319,0.649,32.98
2026-02-13 16:30:11.477,44.300,0.031591,-0.009500,1.777520,1.255,-2.212,0.733,33.08
2026-02-13 16:30:11.577,44.400,0.029149,-0.013895,1.786797,1.225,-2.525,0.878,32.98
2026-02-13 16:30:11.677,44.500,0.028173,-0.012918,1.773858,1.240,-2.326,0.894,32.98
2026-02-13 16:30:11.777,44.600,0.029394,-0.013162,1.776299,1.034,-2.189,0.817,32.93
2026-02-13 16:30:11.877,44.700,0.031835,-0.017557,1.772881,0.965,-2.548,0.787,32.83
2026-02-13 16:30:11.977,44.800,0.031591,-0.015848,1.784356,1.232,-2.204,1.001,33.08
2026-02-13 16:30:12.077,44.900,0.031347,-0.018777,1.773370,1.072,-2.135,0.627,33.08
2026-02-13 16:30:12.177,45.000,0.031835,-0.014139,1.780694,1.232,-2.288,0.741,33.18
2026-02-13 16:30:12.277,45.100,0.032079,-0.017557,1.776788,1.232,-2.174,0.550,32.93
2026-02-13 16:30:12.377,45.200,0.031591,-0.015848,1.775079,1.194,-2.196,0.459,32.93
2026-02-13 16:30:12.477,45.300,0.030614,-0.013895,1.774346,1.149,-2.418,0.970,32.93
2026-02-13 16:30:12.577,45.400,0.031591,-0.012674,1.777276,1.065,-2.349,0.726,33.08
2026-02-13 16:30:12.677,45.500,0.033056,-0.015604,1.784356,1.316,-2.410,0.779,33.08
2026-02-13 16:30:12.777,45.600,0.031347,-0.013650,1.774835,1.248,-2.357,0.955,33.13
2026-02-13 16:30:12.877,45.700,0.030126,-0.013650,1.781182,1.179,-2.341,0.680,32.64
2026-02-13 16:30:12.977,45.800,0.032567,-0.015604,1.771417,1.187,-2.067,0.665,33.08
2026-02-13 16:30:13.077,45.900,0.032079,-0.016580,1.775811,1.202,-2.433,0.901,32.83
2026-02-13 16:30:13.177,46.000,0.030858,-0.019266,1.776299,1.156,-2.227,0.741,33.18
2026-02-13 16:30:13.277,46.100,0.029882,-0.017801,1.776055,1.225,-2.212,0.726,32.78
2026-02-13 16:30:13.377,46.200,0.034276,-0.017068,1.772149,1.087,-2.120,0.749,33.08
2026-02-13 16:30:13.477,46.300,0.027440,-0.014627,1.783380,1.141,-2.097,0.695,33.13
2026-02-13 16:30:13.577,46.400,0.033300,-0.016092,1.774590,1.400,-2.525,0.917,33.08
2026-02-13 16:30:13.677,46.500,0.030370,-0.011697,1.778497,1.324,-2.219,0.932,32.64
2026-02-13 16:30:13.777,46.600,0.033544,-0.013406,1.770928,1.057,-2.196,0.772,33.13
2026-02-13 16:30:13.877,46.700,0.029638,-0.013895,1.774835,1.431,-2.166,0.810,32.78
2026-02-13 16:30:13.977,46.800,0.032079,-0.016092,1.780450,1.179,-2.372,0.817,32.83
2026-02-13 16:30:14.077,46.900,0.027929,-0.018045,1.781426,1.515,-2.532,0.756,33.08
2026-02-13 16:30:14.177,47.000,0.031103,-0.015604,1.777764,1.026,-2.303,0.558,32.83
2026-02-13 16:30:14.277,47.100,0.034521,-0.015115,1.777032,1.149,-2.395,0.787,33.18
2026-02-13 16:30:14.377,47.200,0.035253,-0.014139,1.782891,1.164,-2.433,0.840,32.83
2026-02-13 16:30:14.477,47.300,0.028905,-0.016824,1.775079,1.110,-2.334,1.008,32.83
2026-02-13 16:30:14.577,47.400,0.032079,-0.015848,1.778253,1.324,-2.258,0.550,33.08
2026-02-13 16:30:14.677,47.500,0.029882,-0.016336,1.774590,0.973,-2.135,0.947,33.08
2026-02-13 16:30:14.777,47.600,0.027685,-0.013406,1.776544,1.469,-2.471,0.634,32.98
2026-02-13 16:30:14.877,47.700,0.030370,-0.014139,1.772637,1.103,-2.120,0.657,32.98
2026-02-13 16:30:14.977,47.800,0.029394,-0.019754,1.780450,1.301,-2.349,0.795,32.59
2026-02-13 16:30:15.077,47.900,0.030370,-0.018289,1.776055,1.294,-2.059,0.810,32.93
2026-02-13 16:30:15.177,48.000,0.030614,-0.015848,1.778008,1.118,-2.387,0.504,32.98
2026-02-13 16:30:15.277,48.100,0.029882,-0.017068,1.777032,1.049,-2.532,0.711,33.13
2026-02-13 16:30:15.377,48.200,0.033056,-0.015848,1.777764,1.179,-2.204,0.756,32.93
2026-02-13 16:30:15.477,48.300,0.029638,-0.013895,1.772393,1.019,-2.151,0.688,32.93
2026-02-13 16:30:15.577,48.400,0.028661,-0.016824,1.784356,1.042,-2.357,0.825,33.08
2026-02-13 16:30:15.677,48.500,0.030858,-0.015115,1.777276,1.439,-2.502,0.810,32.83
2026-02-13 16:30:15.777,48.600,0.029394,-0.016824,1.783868,1.210,-2.265,1.024,33.18
2026-02-13 16:30:15.877,48.700,0.029638,-0.011941,1.778985,1.164,-2.456,0.779,32.98
2026-02-13 16:30:15.977,48.800,0.029149,-0.016336,1.774102,1.087,-2.380,0.573,32.78
2026-02-13 16:30:16.077,48.900,0.032323,-0.015848,1.782647,1.339,-2.433,0.848,32.78
2026-02-13 16:30:16.177,49.000,0.034521,-0.014627,1.780938,1.110,-2.212,0.878,32.93
2026-02-13 16:30:16.277,49.100,0.029638,-0.013650,1.776299,1.126,-2.158,0.871,32.93
2026-02-13 16:30:16.377,49.200,0.028905,-0.016336,1.774590,1.202,-2.532,0.474,32.93
2026-02-13 16:30:16.477,49.300,0.032323,-0.012674,1.781915,0.950,-2.357,0.901,32.83
2026-02-13 16:30:16.577,49.400,0.031103,-0.015115,1.774835,1.065,-2.181,0.657,32.93
2026-02-13 16:30:16.677,49.500,0.034032,-0.015848,1.773126,1.217,-2.074,0.680,33.08
2026-02-13 16:30:16.777,49.600,0.032323,-0.015848,1.775323,1.225,-2.319,0.649,33.08
2026-02-13 16:30:16.877,49.700,0.032812,-0.015359,1.778008,1.210,-2.112,0.665,33.08
2026-02-13 16:30:16.977,49.800,0.029638,-0.012674,1.778985,1.179,-2.494,0.535,32.78
2026-02-13 16:30:17.077,49.900,0.030614,-0.012918,1.775567,1.263,-2.250,0.924,33.08
2026-02-13 16:30:17.177,50.000,0.032567,-0.015359,1.778741,1.194,-2.227,0.833,32.93
2026-02-13 16:30:17.277,50.100,0.031835,-0.015604,1.776055,1.065,-2.219,0.856,33.08
2026-02-13 16:30:17.377,50.200,0.034276,-0.013162,1.773858,1.080,-2.280,0.619,32.93
2026-02-13 16:30:17.477,50.300,0.031347,-0.014627,1.777520,1.171,-2.097,0.886,32.93
2026-02-13 16:30:17.577,50.400,0.033056,-0.015115,1.782159,1.370,-2.265,0.993,33.27
2026-02-13 16:30:17.677,50.500,0.031347,-0.017557,1.777520,1.057,-2.189,0.886,32.93
2026-02-13 16:30:17.777,50.600,0.029638,-0.015359,1.773126,1.149,-2.349,0.817,32.93
2026-02-13 16:30:17.877,50.700,0.033300,-0.012674,1.776055,1.194,-2.319,0.863,32.93
2026-02-13 16:30:17.977,50.800,0.031103,-0.012674,1.778008,1.439,-2.303,0.497,32.83
2026-02-13 16:30:18.077,50.900,0.031591,-0.013895,1.778497,1.240,-2.235,0.840,32.78
2026-02-13 16:30:18.177,51.000,0.027929,-0.016824,1.782647,1.454,-2.380,0.917,32.93
2026-02-13 16:30:18.277,51.100,0.031347,-0.014871,1.776544,0.912,-1.937,0.978,32.98
2026-02-13 16:30:18.377,51.200,0.031835,-0.014383,1.773126,1.187,-2.135,0.695,32.74
2026-02-13 16:30:18.477,51.300,0.034032,-0.014627,1.775567,1.118,-2.135,0.817,33.08
2026-02-13 16:30:18.577,51.400,0.029638,-0.012674,1.778008,1.316,-2.403,0.688,32.93
2026-02-13 16:30:18.677,51.500,0.034765,-0.012918,1.769952,1.164,-2.296,0.802,32.74
2026-02-13 16:30:18.777,51.600,0.031347,-0.015604,1.773370,0.935,-2.487,0.940,32.83
2026-02-13 16:30:18.877,51.700,0.033300,-0.014871,1.775323,1.217,-2.395,0.634,32.98
2026-02-13 16:30:18.977,51.800,0.027685,-0.014871,1.777764,1.316,-2.280,0.512,32.78
2026-02-13 16:30:19.077,51.900,0.030126,-0.016336,1.775567,1.225,-2.380,0.802,32.93
2026-02-13 16:30:19.177,52.000,0.030858,-0.013162,1.781671,1.240,-2.265,0.566,32.78
2026-02-13 16:30:19.277,52.100,0.029394,-0.014383,1.776299,0.988,-2.303,0.947,32.98
2026-02-13 16:30:19.377,52.200,0.028661,-0.016092,1.776299,1.339,-2.051,0.604,32.93
2026-02-13 16:30:19.477,52.300,0.033788,-0.016824,1.780450,1.339,-2.319,0.772,32.78
2026-02-13 16:30:19.577,52.400,0.026952,-0.018289,1.777032,0.919,-2.380,0.848,33.08
2026-02-13 16:30:19.677,52.500,0.033300,-0.015359,1.777520,1.065,-2.067,0.741,32.93
2026-02-13 16:30:19.777,52.600,0.033544,-0.013406,1.776299,1.362,-2.334,0.787,32.78
2026-02-13 16:30:19.877,52.700,0.032079,-0.012430,1.778985,1.248,-2.212,0.634,32.98
2026-02-13 16:30:19.977,52.800,0.029882,-0.015115,1.778008,1.332,-2.258,0.940,33.08
2026-02-13 16:30:20.077,52.900,0.030858,-0.018045,1.771905,1.065,-2.212,0.810,32.83
2026-02-13 16:30:20.177,53.000,0.029149,-0.015604,1.778985,1.225,-2.273,0.733,32.78
2026-02-13 16:30:20.277,53.100,0.027440,-0.013895,1.778497,1.431,-2.265,0.497,32.98
2026-02-13 16:30:20.377,53.200,0.031347,-0.018533,1.774590,1.080,-2.280,0.795,33.08
2026-02-13 16:30:20.477,53.300,0.032812,-0.015115,1.783135,1.164,-2.143,0.695,33.08
2026-02-13 16:30:20.577,53.400,0.032323,-0.012186,1.778253,0.897,-2.219,0.657,33.08
2026-02-13 16:30:20.677,53.500,0.032323,-0.015359,1.780938,1.011,-2.326,0.795,33.08
2026-02-13 16:30:20.777,53.600,0.031591,-0.013650,1.775079,1.301,-2.563,1.062,32.93
2026-02-13 16:30:20.877,53.700,0.029394,-0.010232,1.774835,1.187,-2.143,0.825,32.64
2026-02-13 16:30:20.977,53.800,0.031103,-0.017313,1.775811,1.301,-2.586,0.825,33.08
2026-02-13 16:30:21.077,53.900,0.030126,-0.014871,1.778253,1.026,-2.181,0.550,32.98
2026-02-13 16:30:21.177,54.000,0.027929,-0.018045,1.777276,1.286,-2.601,0.795,32.78
2026-02-13 16:30:21.277,54.100,0.029882,-0.013406,1.774590,1.126,-2.174,0.703,33.13
2026-02-13 16:30:21.377,54.200,0.032812,-0.016580,1.779229,1.240,-2.151,0.726,33.13
2026-02-13 16:30:21.477,54.300,0.027929,-0.013406,1.777520,1.026,-2.135,0.802,33.08
2026-02-13 16:30:21.577,54.400,0.036718,-0.015604,1.778985,1.065,-2.166,0.672,32.64
2026-02-13 16:30:21.677,54.500,0.032079,-0.016580,1.777032,1.378,-2.120,0.649,32.78
2026-02-13 16:30:21.777,54.600,0.032079,-0.017068,1.773858,1.255,-2.334,0.856,32.98
2026-02-13 16:30:21.877,54.700,0.032812,-0.017068,1.777276,1.393,-2.242,0.665,32.93
2026-02-13 16:30:21.977,54.800,0.030126,-0.017313,1.777764,0.858,-2.487,0.955,32.93
2026-02-13 16:30:22.077,54.900,0.032079,-0.014627,1.776299,1.286,-2.128,0.726,33.13
2026-02-13 16:30:22.177,55.000,0.031103,-0.014627,1.778497,1.126,-2.441,0.726,33.08
2026-02-13 16:30:22.277,55.100,0.031103,-0.015848,1.781182,1.255,-2.441,0.741,32.93
2026-02-13 16:30:22.377,55.200,0.033788,-0.012918,1.774102,1.271,-2.288,0.863,33.08
2026-02-13 16:30:22.477,55.300,0.029394,-0.015848,1.775323,0.950,-2.128,0.871,32.64
2026-02-13 16:30:22.577,55.400,0.033788,-0.015604,1.777764,1.042,-2.296,1.016,33.08
2026-02-13 16:30:22.677,55.500,0.030614,-0.017068,1.779229,1.240,-2.273,0.573,32.93
2026-02-13 16:30:22.777,55.600,0.028173,-0.014383,1.775567,1.232,-2.219,0.611,32.93
2026-02-13 16:30:22.877,55.700,0.029882,-0.015115,1.775811,1.187,-2.158,0.985,32.74
2026-02-13 16:30:22.977,55.800,0.031347,-0.017313,1.779473,1.355,-2.326,0.711,32.93
2026-02-13 16:30:23.077,55.900,0.031103,-0.016580,1.781915,0.828,-2.471,0.955,32.93
2026-02-13 16:30:23.177,56.000,0.032323,-0.012674,1.777276,1.400,-2.586,0.596,32.83
2026-02-13 16:30:23.277,56.100,0.029149,-0.014383,1.773858,1.347,-2.189,0.840,33.13
2026-02-13 16:30:23.377,56.200,0.030370,-0.012430,1.774346,1.011,-2.181,0.749,33.08
2026-02-13 16:30:23.477,56.300,0.029394,-0.016092,1.774590,1.385,-2.227,0.489,33.27
2026-02-13 16:30:23.577,56.400,0.028905,-0.011209,1.777276,1.019,-2.097,0.741,32.98
2026-02-13 16:30:23.677,56.500,0.031347,-0.017801,1.773858,0.950,-2.258,0.657,33.13
2026-02-13 16:30:23.777,56.600,0.029638,-0.016092,1.776055,1.408,-2.349,0.657,33.08
2026-02-13 16:30:23.877,56.700,0.029638,-0.017801,1.775567,1.301,-2.090,0.779,32.78
2026-02-13 16:30:23.977,56.800,0.028661,-0.016092,1.783868,1.263,-2.319,0.848,32.93
2026-02-13 16:30:24.077,56.900,0.029638,-0.015359,1.774102,1.294,-2.441,0.711,33.18
2026-02-13 16:30:24.177,57.000,0.031835,-0.014383,1.779717,1.019,-2.525,0.604,32.98
2026-02-13 16:30:24.277,57.100,0.032323,-0.012430,1.771905,1.217,-2.258,0.840,32.98
2026-02-13 16:30:24.377,57.200,0.031103,-0.012918,1.776544,1.126,-2.319,0.848,32.98
2026-02-13 16:30:24.477,57.300,0.027440,-0.011697,1.774835,1.309,-2.273,0.772,32.93
2026-02-13 16:30:24.577,57.400,0.029882,-0.014871,1.777520,1.225,-2.196,0.657,33.13
2026-02-13 16:30:24.677,57.500,0.031347,-0.013406,1.775079,1.080,-2.387,1.092,32.93
2026-02-13 16:30:24.777,57.600,0.031347,-0.018533,1.776055,1.202,-2.410,0.772,33.18
2026-02-13 16:30:24.877,57.700,0.028417,-0.012918,1.773370,1.095,-1.975,0.749,32.98
2026-02-13 16:30:24.977,57.800,0.029882,-0.013650,1.780206,1.118,-2.296,0.909,32.98
2026-02-13 16:30:25.077,57.900,0.029882,-0.016580,1.775079,1.301,-2.273,0.825,32.83
2026-02-13 16:30:25.177,58.000,0.034765,-0.020242,1.779473,1.171,-2.212,0.886,33.08
2026-02-13 16:30:25.277,58.100,0.030858,-0.019510,1.778741,1.217,-2.433,1.001,33.08
2026-02-13 16:30:25.377,58.200,0.032567,-0.013895,1.779962,1.003,-2.265,0.703,32.83
2026-02-13 16:30:25.477,58.300,0.030858,-0.013406,1.777520,1.034,-2.044,1.100,32.83
2026-02-13 16:30:25.577,58.400,0.030858,-0.012674,1.775811,1.179,-2.143,0.833,32.83
2026-02-13 16:30:25.677,58.500,0.029882,-0.017557,1.778008,1.232,-2.471,0.764,32.83
2026-02-13 16:30:25.777,58.600,0.034032,-0.015115,1.772637,1.171,-2.456,0.733,32.93
2026-02-13 16:30:25.877,58.700,0.034521,-0.016336,1.769952,1.324,-2.372,0.749,32.93
2026-02-13 16:30:25.977,58.800,0.028173,-0.017313,1.776299,1.225,-2.502,0.932,32.64
2026-02-13 16:30:26.077,58.900,0.026220,-0.016580,1.775811,1.378,-2.242,1.024,32.64
2026-02-13 16:30:26.177,59.000,0.030126,-0.015604,1.779717,1.179,-2.456,0.840,33.13
2026-02-13 16:30:26.277,59.100,0.030858,-0.014139,1.777764,1.309,-2.471,0.749,33.08
2026-02-13 16:30:26.377,59.200,0.031347,-0.014139,1.781915,1.065,-2.242,0.940,32.98
2026-02-13 16:30:26.477,59.300,0.030858,-0.017068,1.777032,1.301,-2.448,0.657,32.93
2026-02-13 16:30:26.577,59.400,0.027196,-0.012186,1.776299,0.965,-2.151,0.764,32.83
2026-02-13 16:30:26.677,59.500,0.025731,-0.011453,1.779717,1.019,-2.326,0.901,33.08
2026-02-13 16:30:26.777,59.600,0.031591,-0.015115,1.774835,1.271,-2.563,0.955,33.13
2026-02-13 16:30:26.877,59.700,0.033788,-0.014383,1.774835,0.996,-2.380,0.787,32.78
2026-02-13 16:30:26.977,59.800,0.030126,-0.007059,1.776299,1.232,-2.181,0.802,33.13
2026-02-13 16:30:27.077,59.900,0.026952,-0.014627,1.771661,0.874,-2.387,0.756,32.98
2026-02-13 16:30:27.177,60.000,0.031591,-0.013895,1.784112,1.149,-2.456,1.062,32.83
2026-02-13 16:30:27.277,60.100,0.030614,-0.016092,1.778985,1.591,-2.341,0.756,32.78
2026-02-13 16:30:27.377,60.200,0.030370,-0.017068,1.778741,1.164,-2.380,0.680,33.08
2026-02-13 16:30:27.477,60.300,0.027685,-0.017557,1.774835,1.255,-2.273,0.924,33.08
2026-02-13 16:30:27.577,60.400,0.029882,-0.012674,1.777764,1.370,-2.235,1.008,33.13
2026-02-13 16:30:27.677,60.500,0.031835,-0.014871,1.780450,1.232,-2.044,0.840,32.74
2026-02-13 16:30:27.777,60.600,0.028905,-0.015604,1.770684,1.248,-2.120,0.718,32.93
2026-02-13 16:30:27.877,60.700,0.030126,-0.015359,1.771661,0.897,-2.151,0.527,33.08
2026-02-13 16:30:27.977,60.800,0.034276,-0.014871,1.778741,1.194,-1.914,0.772,33.08
2026-02-13 16:30:28.077,60.900,0.029394,-0.013895,1.775079,1.454,-2.067,0.703,32.83
2026-02-13 16:30:28.177,61.000,0.030370,-0.013406,1.777764,0.981,-2.120,0.756,32.78
2026-02-13 16:30:28.277,61.100,0.031347,-0.017801,1.776055,0.988,-2.212,0.596,33.08
2026-02-13 16:30:28.377,61.200,0.031347,-0.017068,1.778253,1.370,-2.334,0.856,32.93
2026-02-13 16:30:28.477,61.300,0.030370,-0.016336,1.773614,1.019,-2.013,0.726,32.78
2026-02-13 16:30:28.577,61.400,0.027929,-0.012430,1.779962,1.339,-2.242,0.695,32.93
2026-02-13 16:30:28.677,61.500,0.026708,-0.011941,1.772393,1.225,-2.441,0.932,33.18
2026-02-13 16:30:28.777,61.600,0.033056,-0.012430,1.781671,1.271,-2.280,0.741,32.83
2026-02-13 16:30:28.877,61.700,0.029882,-0.012186,1.773370,0.988,-2.021,0.863,32.83
2026-02-13 16:30:28.977,61.800,0.033788,-0.017313,1.778741,1.294,-2.189,0.482,33.27
2026-02-13 16:30:29.077,61.900,0.032079,-0.013650,1.769464,1.156,-2.418,0.833,33.13
2026-02-13 16:30:29.177,62.000,0.030370,-0.012918,1.773858,1.217,-2.349,0.680,32.74
2026-02-13 16:30:29.277,62.100,0.026708,-0.015115,1.778497,1.370,-2.403,0.817,32.93
2026-02-13 16:30:29.377,62.200,0.031103,-0.018045,1.777032,1.271,-2.433,0.901,33.13
2026-02-13 16:30:29.477,62.300,0.030858,-0.015359,1.777764,0.988,-2.242,0.642,33.13
2026-02-13 16:30:29.577,62.400,0.029882,-0.018289,1.773858,1.179,-2.219,0.695,33.08
2026-02-13 16:30:29.677,62.500,0.028905,-0.017801,1.778008,1.194,-2.311,0.909,32.78
2026-02-13 16:30:29.777,62.600,0.030370,-0.016580,1.772637,1.149,-1.945,0.940,32.78
2026-02-13 16:30:29.877,62.700,0.030370,-0.018777,1.771905,1.332,-2.441,0.924,33.13
2026-02-13 16:30:29.977,62.800,0.029149,-0.017068,1.774590,1.278,-2.425,0.848,32.59
2026-02-13 16:30:30.077,62.900,0.033056,-0.015604,1.777520,0.973,-2.219,0.894,32.93
2026-02-13 16:30:30.177,63.000,0.032079,-0.019510,1.777276,1.179,-2.464,0.604,33.08
2026-02-13 16:30:30.277,63.100,0.028417,-0.015115,1.781426,1.416,-2.425,1.046,32.74
2026-02-13 16:30:30.377,63.200,0.030614,-0.011453,1.776055,1.461,-2.265,0.634,32.83
2026-02-13 16:30:30.477,63.300,0.032812,-0.017068,1.775323,1.133,-2.380,0.856,33.37
2026-02-13 16:30:30.577,63.400,0.028173,-0.016824,1.773126,1.232,-2.448,0.665,32.98
2026-02-13 16:30:30.677,63.500,0.029638,-0.010721,1.775323,1.294,-2.280,0.604,33.18
2026-02-13 16:30:30.777,63.600,0.035009,-0.017557,1.776055,1.179,-2.349,0.878,32.93
2026-02-13 16:30:30.877,63.700,0.030126,-0.015848,1.774835,1.240,-2.166,0.795,32.98
2026-02-13 16:30:30.977,63.800,0.032323,-0.016336,1.772393,1.263,-2.517,0.825,33.08
2026-02-13 16:30:31.077,63.900,0.029882,-0.010477,1.773370,1.095,-2.410,0.604,33.08
2026-02-13 16:30:31.177,64.000,0.032079,-0.019022,1.769708,1.294,-2.311,0.772,32.74
2026-02-13 16:30:31.277,64.100,0.029638,-0.012186,1.771905,1.042,-2.357,0.871,33.18
2026-02-13 16:30:31.377,64.200,0.031835,-0.013650,1.772881,1.065,-2.135,1.092,32.93
2026-02-13 16:30:31.477,64.300,0.032323,-0.016580,1.777520,1.103,-2.395,0.619,32.98
2026-02-13 16:30:31.577,64.400,0.028173,-0.011209,1.777764,1.164,-2.158,0.802,32.98
2026-02-13 16:30:31.677,64.500,0.030126,-0.015604,1.776788,1.278,-2.517,0.733,32.83
2026-02-13 16:30:31.777,64.600,0.030614,-0.015848,1.774102,1.042,-2.319,0.962,33.08
2026-02-13 16:30:31.877,64.700,0.031835,-0.016580,1.776788,1.072,-1.983,0.695,32.93
2026-02-13 16:30:31.977,64.800,0.032323,-0.015359,1.779473,1.416,-2.273,0.901,33.18
2026-02-13 16:30:32.077,64.900,0.027929,-0.014871,1.775811,1.416,-2.090,0.772,33.13
2026-02-13 16:30:32.177,65.000,0.033544,-0.015115,1.776055,1.232,-2.372,0.833,33.08
2026-02-13 16:30:32.277,65.100,0.030858,-0.017313,1.774102,1.072,-2.143,0.840,32.59
2026-02-13 16:30:32.377,65.200,0.031591,-0.012918,1.779473,1.202,-2.387,0.856,32.93
2026-02-13 16:30:32.477,65.300,0.033300,-0.015359,1.775567,1.164,-2.258,0.787,32.78
2026-02-13 16:30:32.577,65.400,0.029882,-0.015604,1.775567,1.286,-2.143,0.772,32.83
2026-02-13 16:30:32.677,65.500,0.034032,-0.014627,1.769219,1.378,-2.502,0.619,32.83
2026-02-13 16:30:32.777,65.600,0.027685,-0.012918,1.775079,1.316,-2.364,0.810,32.78
2026-02-13 16:30:32.877,65.700,0.028661,-0.016092,1.773126,1.271,-2.250,0.863,33.08
2026-02-13 16:30:32.977,65.800,0.031835,-0.014871,1.781182,1.179,-2.212,0.604,32.78
2026-02-13 16:30:33.077,65.900,0.032567,-0.012918,1.777276,1.507,-2.464,0.894,33.13
2026-02-13 16:30:33.177,66.000,0.032812,-0.016336,1.775811,1.400,-2.227,0.878,32.83
2026-02-13 16:30:33.277,66.100,0.032323,-0.016092,1.777276,1.103,-2.364,0.802,32.93
2026-02-13 16:30:33.377,66.200,0.031835,-0.016092,1.779473,1.217,-2.235,0.825,33.32
2026-02-13 16:30:33.477,66.300,0.034765,-0.013650,1.783135,1.194,-2.051,0.527,32.78
2026-02-13 16:30:33.577,66.400,0.029394,-0.019998,1.772881,0.958,-2.212,0.848,32.83
2026-02-13 16:30:33.677,66.500,0.029149,-0.013162,1.775079,1.011,-2.280,0.756,32.98
2026-02-13 16:30:33.777,66.600,0.029638,-0.016336,1.777764,1.187,-2.570,0.680,32.74
2026-02-13 16:30:33.877,66.700,0.029394,-0.012674,1.773858,0.965,-2.395,0.955,32.93
2026-02-13 16:30:33.977,66.800,0.028661,-0.013406,1.778497,1.355,-2.410,0.878,32.93
2026-02-13 16:30:34.077,66.900,0.030126,-0.015115,1.779962,1.232,-2.441,0.672,33.37
2026-02-13 16:30:34.177,67.000,0.025731,-0.014139,1.773614,1.194,-2.265,0.863,32.78
2026-02-13 16:30:34.277,67.100,0.028905,-0.017557,1.771905,1.065,-2.357,0.871,32.93
2026-02-13 16:30:34.377,67.200,0.033056,-0.016092,1.780938,1.141,-2.258,0.917,32.93
2026-02-13 16:30:34.477,67.300,0.029149,-0.015115,1.773126,1.393,-2.425,0.840,33.08
2026-02-13 16:30:34.577,67.400,0.033056,-0.015848,1.772393,1.294,-2.196,0.703,32.78
2026-02-13 16:30:34.677,67.500,0.029149,-0.018533,1.776299,1.133,-2.380,0.863,33.08
2026-02-13 16:30:34.777,67.600,0.023534,-0.017557,1.774590,1.194,-2.616,0.672,32.78
2026-02-13 16:30:34.877,67.700,0.031835,-0.014139,1.777764,1.347,-2.067,0.688,32.83
2026-02-13 16:30:34.977,67.800,0.027196,-0.014627,1.779962,1.042,-2.456,0.863,33.08
2026-02-13 16:30:35.077,67.900,0.029882,-0.014139,1.780206,1.362,-2.334,0.840,32.74
2026-02-13 16:30:35.177,68.000,0.030858,-0.013650,1.777520,1.248,-2.616,0.886,33.08
2026-02-13 16:30:35.277,68.100,0.029149,-0.013162,1.779962,1.179,-2.418,0.886,32.93
2026-02-13 16:30:35.377,68.200,0.026708,-0.016824,1.773858,1.103,-2.349,0.940,33.08
2026-02-13 16:30:35.477,68.300,0.035253,-0.014139,1.776788,1.446,-2.326,0.878,32.93
2026-02-13 16:30:35.577,68.400,0.028905,-0.012430,1.773126,1.316,-2.487,0.581,32.93
2026-02-13 16:30:35.677,68.500,0.029149,-0.010965,1.771661,1.309,-2.082,0.634,33.18
2026-02-13 16:30:35.777,68.600,0.029394,-0.016092,1.779717,1.133,-2.425,0.764,33.13
2026-02-13 16:30:35.877,68.700,0.032323,-0.017313,1.776788,1.034,-2.227,1.024,32.98
2026-02-13 16:30:35.977,68.800,0.029149,-0.013895,1.775079,0.881,-2.311,0.672,32.83
2026-02-13 16:30:36.077,68.900,0.030614,-0.017801,1.773614,1.179,-2.357,0.756,32.93
2026-02-13 16:30:36.177,69.000,0.031347,-0.015848,1.773858,0.996,-2.357,0.787,32.93
2026-02-13 16:30:36.277,69.100,0.029149,-0.015359,1.775323,1.118,-2.456,0.657,33.08
2026-02-13 16:30:36.377,69.200,0.030370,-0.015359,1.779962,1.042,-2.265,0.665,32.93
2026-02-13 16:30:36.477,69.300,0.027929,-0.015848,1.777276,1.133,-2.120,0.848,33.08
2026-02-13 16:30:36.577,69.400,0.029638,-0.012430,1.776544,1.324,-2.219,0.749,32.98
2026-02-13 16:30:36.677,69.500,0.026708,-0.014139,1.768487,1.263,-2.494,0.672,32.83
2026-02-13 16:30:36.777,69.600,0.030858,-0.014139,1.773858,1.492,-2.326,0.779,32.93
2026-02-13 16:30:36.877,69.700,0.035985,-0.018533,1.777764,1.240,-2.204,0.886,33.37
2026-02-13 16:30:36.977,69.800,0.028661,-0.014383,1.771905,1.202,-2.227,0.833,32.93
2026-02-13 16:30:37.077,69.900,0.029638,-0.017068,1.778253,1.210,-2.387,0.588,33.27
2026-02-13 16:30:37.177,70.000,0.029149,-0.014627,1.773614,1.294,-2.334,0.940,32.83
2026-02-13 16:30:37.277,70.100,0.031103,-0.017557,1.777032,1.286,-2.196,0.856,32.93
2026-02-13 16:30:37.377,70.200,0.030370,-0.016092,1.771172,1.339,-2.181,0.909,33.08
2026-02-13 16:30:37.477,70.300,0.031103,-0.016092,1.767510,1.416,-2.364,0.657,32.93
2026-02-13 16:30:37.577,70.400,0.031103,-0.014871,1.776055,1.210,-2.532,0.718,32.83
2026-02-13 16:30:37.677,70.500,0.031835,-0.014627,1.770196,1.347,-2.212,0.695,33.13
2026-02-13 16:30:37.777,70.600,0.033056,-0.014627,1.776299,1.141,-2.387,0.711,33.27
2026-02-13 16:30:37.877,70.700,0.028661,-0.017801,1.778253,1.324,-2.387,0.711,33.08
2026-02-13 16:30:37.977,70.800,0.033544,-0.013406,1.773370,0.889,-2.051,0.833,32.74
2026-02-13 16:30:38.077,70.900,0.028661,-0.015115,1.775811,1.156,-2.487,0.695,32.93
2026-02-13 16:30:38.177,71.000,0.027440,-0.010232,1.769708,1.179,-2.311,0.688,32.93
2026-02-13 16:30:38.277,71.100,0.031591,-0.015848,1.776055,1.301,-2.319,1.100,33.08
2026-02-13 16:30:38.377,71.200,0.030370,-0.011697,1.778985,1.278,-2.273,0.932,32.98
2026-02-13 16:30:38.477,71.300,0.029394,-0.014383,1.776788,0.904,-2.227,0.482,33.13
2026-02-13 16:30:38.577,71.400,0.028905,-0.017313,1.780206,1.141,-2.196,0.856,32.93
2026-02-13 16:30:38.677,71.500,0.030126,-0.017557,1.776788,0.904,-2.311,0.672,33.08
2026-02-13 16:30:38.777,71.600,0.035741,-0.016092,1.772881,1.202,-2.364,0.665,32.78
2026-02-13 16:30:38.877,71.700,0.032567,-0.014871,1.780694,1.347,-2.326,0.733,32.93
2026-02-13 16:30:38.977,71.800,0.025976,-0.017801,1.777520,1.103,-2.303,0.749,33.13
2026-02-13 16:30:39.077,71.900,0.030858,-0.012918,1.782159,1.255,-2.303,0.390,32.98
2026-02-13 16:30:39.177,72.000,0.029394,-0.015115,1.774835,1.149,-2.090,0.848,32.98
2026-02-13 16:30:39.277,72.100,0.030858,-0.019022,1.779229,1.454,-2.128,0.909,33.08
2026-02-13 16:30:39.377,72.200,0.029882,-0.013650,1.776055,1.019,-2.487,0.970,32.74
2026-02-13 16:30:39.477,72.300,0.032567,-0.011697,1.782159,1.126,-2.326,1.069,33.13
2026-02-13 16:30:39.577,72.400,0.028173,-0.012918,1.776055,1.133,-2.158,0.642,32.93
2026-02-13 16:30:39.677,72.500,0.026952,-0.019754,1.772881,1.080,-2.479,0.856,32.83
2026-02-13 16:30:39.777,72.600,0.025976,-0.016580,1.771417,1.149,-2.166,0.711,32.74
2026-02-13 16:30:39.877,72.700,0.029394,-0.016092,1.777032,1.271,-2.273,0.756,33.27
2026-02-13 16:30:39.977,72.800,0.030370,-0.012918,1.778741,1.240,-2.433,0.741,32.98
2026-02-13 16:30:40.077,72.900,0.030614,-0.015848,1.768731,1.171,-2.448,0.474,33.08
2026-02-13 16:30:40.177,73.000,0.027685,-0.011697,1.771661,1.301,-2.143,0.772,33.08
2026-02-13 16:30:40.277,73.100,0.032323,-0.013406,1.771661,0.797,-2.158,0.924,32.83
2026-02-13 16:30:40.377,73.200,0.032567,-0.014383,1.780450,1.286,-2.196,0.878,33.08
2026-02-13 16:30:40.477,73.300,0.033056,-0.015604,1.778985,1.217,-2.441,0.627,33.08
2026-02-13 16:30:40.577,73.400,0.030614,-0.017801,1.780206,1.423,-2.059,0.856,33.08
2026-02-13 16:30:40.677,73.500,0.032079,-0.014627,1.778008,1.225,-2.212,1.062,32.98
2026-02-13 16:30:40.777,73.600,0.029394,-0.017801,1.778985,1.255,-2.433,0.512,33.08
2026-02-13 16:30:40.877,73.700,0.029882,-0.013650,1.782159,1.110,-2.319,0.749,33.13
2026-02-13 16:30:40.977,73.800,0.029394,-0.021219,1.784356,1.164,-2.464,0.810,33.08
2026-02-13 16:30:41.077,73.900,0.029149,-0.014627,1.775323,1.210,-2.464,0.924,33.08
2026-02-13 16:30:41.177,74.000,0.028661,-0.020730,1.774346,1.087,-2.128,0.550,32.83
2026-02-13 16:30:41.277,74.100,0.027685,-0.016824,1.777276,1.324,-2.128,0.749,32.83
2026-02-13 16:30:41.377,74.200,0.031835,-0.013406,1.773370,1.171,-2.647,0.428,33.13
2026-02-13 16:30:41.477,74.300,0.028661,-0.015604,1.770684,1.324,-2.250,0.955,32.78
2026-02-13 16:30:41.577,74.400,0.026708,-0.015359,1.779229,1.255,-2.082,0.932,32.74
2026-02-13 16:30:41.677,74.500,0.031591,-0.012674,1.781671,1.126,-2.311,0.962,32.98
2026-02-13 16:30:41.777,74.600,0.031103,-0.011941,1.777276,0.996,-2.128,0.688,32.64
2026-02-13 16:30:41.877,74.700,0.030614,-0.016580,1.781426,1.156,-2.364,0.772,33.13
2026-02-13 16:30:41.977,74.800,0.025243,-0.014139,1.767510,1.118,-2.319,0.588,33.13
2026-02-13 16:30:42.077,74.900,0.029394,-0.017557,1.774590,1.057,-2.219,0.817,33.08
2026-02-13 16:30:42.177,75.000,0.031103,-0.016580,1.780694,1.171,-2.395,0.993,33.13
2026-02-13 16:30:42.277,75.100,0.028173,-0.016824,1.782891,1.202,-2.112,0.795,32.74
2026-02-13 16:30:42.377,75.200,0.029394,-0.016336,1.772881,1.026,-2.586,0.550,33.08
2026-02-13 16:30:42.477,75.300,0.030858,-0.018045,1.777032,1.301,-2.395,0.672,33.08
2026-02-13 16:30:42.577,75.400,0.030370,-0.014627,1.776788,1.179,-2.311,0.611,32.83
2026-02-13 16:30:42.677,75.500,0.030370,-0.017068,1.774835,1.294,-2.273,0.711,32.78
2026-02-13 16:30:42.777,75.600,0.033544,-0.010721,1.773614,1.477,-2.135,0.726,33.13
2026-02-13 16:30:42.877,75.700,0.029394,-0.013406,1.769708,1.080,-2.029,0.772,32.83
2026-02-13 16:30:42.977,75.800,0.029394,-0.019510,1.777764,0.965,-2.212,0.703,32.93
2026-02-13 16:30:43.077,75.900,0.029638,-0.018777,1.781182,1.171,-2.372,0.909,33.08
2026-02-13 16:30:43.177,76.000,0.031835,-0.015848,1.776299,1.271,-2.097,0.756,32.98
2026-02-13 16:30:43.277,76.100,0.033788,-0.012674,1.778497,0.988,-2.021,0.810,33.13
2026-02-13 16:30:43.377,76.200,0.026464,-0.017313,1.771172,1.087,-2.303,1.245,33.18
2026-02-13 16:30:43.477,76.300,0.029394,-0.015604,1.775079,1.255,-2.174,0.795,32.93
2026-02-13 16:30:43.577,76.400,0.029882,-0.011697,1.772393,1.339,-2.471,0.772,33.08
2026-02-13 16:30:43.677,76.500,0.030126,-0.013650,1.775079,1.271,-2.341,0.833,33.08
2026-02-13 16:30:43.777,76.600,0.031591,-0.014139,1.780938,1.408,-2.311,0.749,32.64
2026-02-13 16:30:43.877,76.700,0.030126,-0.012430,1.767510,1.225,-2.357,0.657,33.32
2026-02-13 16:30:43.977,76.800,0.027929,-0.012674,1.776055,1.126,-2.258,0.665,32.98
2026-02-13 16:30:44.077,76.900,0.027196,-0.015115,1.783380,1.263,-2.349,0.810,33.08
2026-02-13 16:30:44.177,77.000,0.028905,-0.013895,1.772881,1.171,-2.326,1.207,33.08
2026-02-13 16:30:44.277,77.100,0.031103,-0.013895,1.775079,1.225,-2.135,0.527,33.08
2026-02-13 16:30:44.377,77.200,0.027440,-0.015604,1.779962,1.362,-2.349,0.680,32.93
2026-02-13 16:30:44.477,77.300,0.032079,-0.013895,1.779229,1.026,-2.189,0.680,33.08
2026-02-13 16:30:44.577,77.400,0.029394,-0.016824,1.776055,1.133,-2.196,0.810,32.93
2026-02-13 16:30:44.677,77.500,0.030858,-0.017801,1.777764,1.202,-2.532,0.688,32.59
2026-02-13 16:30:44.777,77.600,0.027196,-0.013406,1.775811,1.065,-2.212,0.878,32.78
2026-02-13 16:30:44.877,77.700,0.033056,-0.017068,1.778741,1.026,-2.487,0.856,32.93
2026-02-13 16:30:44.977,77.800,0.029882,-0.014627,1.775567,1.202,-2.212,0.558,32.74
2026-02-13 16:30:45.077,77.900,0.032567,-0.017313,1.775323,1.355,-2.311,0.779,33.08
2026-02-13 16:30:45.177,78.000,0.029394,-0.015359,1.778741,1.232,-2.319,0.566,33.13
2026-02-13 16:30:45.277,78.100,0.030370,-0.017313,1.777764,1.164,-2.166,0.779,33.08
2026-02-13 16:30:45.377,78.200,0.031103,-0.014139,1.776544,1.294,-2.212,0.733,32.83
2026-02-13 16:30:45.477,78.300,0.030858,-0.015359,1.781182,1.072,-2.242,0.741,32.83
2026-02-13 16:30:45.577,78.400,0.026464,-0.014871,1.778253,1.332,-2.525,0.817,32.83
2026-02-13 16:30:45.677,78.500,0.032323,-0.014627,1.779229,1.255,-2.082,0.833,32.93
2026-02-13 16:30:45.777,78.600,0.034276,-0.016824,1.767999,1.255,-2.227,0.833,32.83
2026-02-13 16:30:45.877,78.700,0.033300,-0.016824,1.780938,1.263,-2.448,0.657,32.78
2026-02-13 16:30:45.977,78.800,0.026952,-0.013162,1.779962,1.011,-2.090,0.596,32.64
2026-02-13 16:30:46.077,78.900,0.030858,-0.014627,1.775811,1.431,-2.227,0.909,32.93
2026-02-13 16:30:46.177,79.000,0.029149,-0.013650,1.773614,1.141,-2.120,0.909,32.98
2026-02-13 16:30:46.277,79.100,0.028173,-0.015359,1.773614,1.095,-2.464,0.962,33.18
2026-02-13 16:30:46.377,79.200,0.030858,-0.014139,1.770196,1.240,-2.380,0.779,33.08
2026-02-13 16:30:46.477,79.300,0.032567,-0.016336,1.777520,0.942,-2.349,0.588,33.13
2026-02-13 16:30:46.577,79.400,0.028905,-0.019266,1.778497,1.248,-2.051,0.436,33.13
2026-02-13 16:30:46.677,79.500,0.031591,-0.017313,1.778253,1.232,-2.158,0.733,33.08
2026-02-13 16:30:46.777,79.600,0.032079,-0.016580,1.775811,1.103,-2.143,0.909,32.59
2026-02-13 16:30:46.877,79.700,0.031835,-0.013650,1.778253,1.271,-2.341,0.672,32.64
2026-02-13 16:30:46.977,79.800,0.032812,-0.018533,1.776544,1.072,-2.433,0.482,32.98
2026-02-13 16:30:47.077,79.900,0.032812,-0.015115,1.778985,1.065,-2.181,0.604,32.83
2026-02-13 16:30:47.177,80.000,0.032323,-0.013895,1.778253,1.324,-2.265,0.817,32.98
2026-02-13 16:30:47.277,80.100,0.030614,-0.010477,1.778741,1.156,-2.181,0.856,33.18
2026-02-13 16:30:47.377,80.200,0.029882,-0.017801,1.775079,1.179,-2.403,1.230,33.08
2026-02-13 16:30:47.477,80.300,0.028173,-0.016336,1.776055,1.332,-2.204,0.848,32.98
2026-02-13 16:30:47.577,80.400,0.028661,-0.013406,1.780206,1.362,-2.448,1.024,32.74
2026-02-13 16:30:47.677,80.500,0.024999,-0.015359,1.775323,1.301,-2.128,0.627,33.13
2026-02-13 16:30:47.777,80.600,0.029882,-0.017068,1.782159,1.332,-2.219,0.817,32.98
2026-02-13 16:30:47.877,80.700,0.030370,-0.017068,1.781915,1.202,-2.120,0.871,32.98
2026-02-13 16:30:47.977,80.800,0.030126,-0.017313,1.781426,1.248,-2.112,0.634,33.27
2026-02-13 16:30:48.077,80.900,0.029394,-0.017801,1.779962,1.210,-2.471,0.688,33.08
2026-02-13 16:30:48.177,81.000,0.035497,-0.013895,1.775323,1.271,-2.212,0.962,33.08
2026-02-13 16:30:48.277,81.100,0.030126,-0.014383,1.771661,1.370,-2.273,0.596,32.98
2026-02-13 16:30:48.377,81.200,0.027685,-0.015359,1.778008,1.034,-2.395,0.856,32.83
2026-02-13 16:30:48.477,81.300,0.031591,-0.018533,1.772149,1.034,-2.326,1.054,32.83
2026-02-13 16:30:48.577,81.400,0.032812,-0.014627,1.783868,1.080,-2.326,0.466,32.98
2026-02-13 16:30:48.677,81.500,0.033300,-0.017313,1.778253,1.316,-2.479,0.917,33.13
2026-02-13 16:30:48.777,81.600,0.028417,-0.015604,1.776299,1.164,-2.227,0.802,32.98
2026-02-13 16:30:48.877,81.700,0.030614,-0.015848,1.778741,1.355,-2.280,0.825,32.98
2026-02-13 16:30:48.977,81.800,0.028661,-0.012430,1.775811,1.164,-2.540,0.871,33.13
2026-02-13 16:30:49.077,81.900,0.028661,-0.019022,1.777032,1.126,-2.265,0.863,33.08
2026-02-13 16:30:49.177,82.000,0.029638,-0.016336,1.772149,1.378,-2.525,0.718,32.74
2026-02-13 16:30:49.277,82.100,0.028905,-0.010232,1.772881,1.248,-2.151,0.611,32.78
2026-02-13 16:30:49.377,82.200,0.031103,-0.016824,1.779473,1.095,-2.273,0.901,32.83
2026-02-13 16:30:49.477,82.300,0.031835,-0.015848,1.780938,1.278,-2.372,0.833,32.83
2026-02-13 16:30:49.577,82.400,0.032323,-0.011697,1.776055,1.431,-2.265,0.901,32.98
2026-02-13 16:30:49.677,82.500,0.032323,-0.014627,1.772149,1.416,-2.418,0.756,32.93
2026-02-13 16:30:49.777,82.600,0.027440,-0.020486,1.779229,1.149,-2.410,0.940,32.98
2026-02-13 16:30:49.877,82.700,0.031103,-0.013162,1.779473,1.240,-2.303,0.627,33.13
2026-02-13 16:30:49.977,82.800,0.028173,-0.014871,1.776788,0.965,-2.517,0.718,33.18
2026-02-13 16:30:50.077,82.900,0.031591,-0.015604,1.777764,1.217,-2.227,0.535,32.93
2026-02-13 16:30:50.177,83.000,0.031591,-0.018289,1.771905,1.164,-2.387,0.856,33.27
2026-02-13 16:30:50.277,83.100,0.028417,-0.018289,1.777520,1.080,-2.036,0.680,32.74
2026-02-13 16:30:50.377,83.200,0.026952,-0.017557,1.779229,0.996,-2.425,0.825,32.98
2026-02-13 16:30:50.477,83.300,0.028417,-0.013650,1.780206,1.316,-2.387,0.840,33.08
2026-02-13 16:30:50.577,83.400,0.029882,-0.014383,1.774590,1.385,-2.235,0.619,32.93
2026-02-13 16:30:50.677,83.500,0.029394,-0.014871,1.774102,1.271,-2.319,1.039,32.83
2026-02-13 16:30:50.777,83.600,0.031103,-0.012186,1.779962,1.141,-2.097,0.810,32.98
2026-02-13 16:30:50.877,83.700,0.032812,-0.016092,1.780694,1.332,-2.189,0.749,33.08
2026-02-13 16:30:50.977,83.800,0.027440,-0.014871,1.777032,1.362,-2.464,0.749,32.93
2026-02-13 16:30:51.077,83.900,0.028173,-0.016824,1.779229,0.874,-2.250,0.634,33.08
2026-02-13 16:30:51.177,84.000,0.030370,-0.017313,1.773614,1.278,-2.280,0.726,32.74
2026-02-13 16:30:51.277,84.100,0.030858,-0.015848,1.776299,1.126,-2.143,0.840,32.83
2026-02-13 16:30:51.377,84.200,0.033056,-0.013895,1.769219,1.232,-2.319,0.718,32.83
2026-02-13 16:30:51.477,84.300,0.028417,-0.014627,1.776544,1.179,-2.433,0.688,32.78
2026-02-13 16:30:51.577,84.400,0.031591,-0.015848,1.774835,0.958,-2.265,0.909,33.27
2026-02-13 16:30:51.677,84.500,0.032567,-0.015115,1.774346,1.194,-2.151,0.795,32.78
2026-02-13 16:30:51.777,84.600,0.030858,-0.017801,1.775567,1.316,-2.464,1.024,33.08
2026-02-13 16:30:51.877,84.700,0.034276,-0.012430,1.775567,0.965,-2.418,0.871,32.64
2026-02-13 16:30:51.977,84.800,0.032567,-0.015359,1.776788,1.232,-2.250,0.764,33.08
2026-02-13 16:30:52.077,84.900,0.027440,-0.015848,1.778741,1.210,-2.380,0.924,32.64
2026-02-13 16:30:52.177,85.000,0.032567,-0.017801,1.779229,1.072,-2.189,0.558,32.78
2026-02-13 16:30:52.277,85.100,0.031591,-0.015604,1.773126,1.156,-2.311,0.741,33.27
2026-02-13 16:30:52.377,85.200,0.030370,-0.014871,1.780694,1.294,-2.196,0.733,32.98
2026-02-13 16:30:52.477,85.300,0.031835,-0.014871,1.777032,1.095,-2.487,0.672,33.13
2026-02-13 16:30:52.577,85.400,0.033300,-0.013650,1.775811,1.156,-2.067,0.886,32.83
2026-02-13 16:30:52.677,85.500,0.031347,-0.014871,1.776055,1.255,-2.112,0.795,32.93
2026-02-13 16:30:52.777,85.600,0.033300,-0.014871,1.773614,1.240,-2.258,0.970,33.18
2026-02-13 16:30:52.877,85.700,0.026952,-0.016336,1.775811,1.164,-2.303,0.741,32.93
2026-02-13 16:30:52.977,85.800,0.027440,-0.013895,1.778497,1.080,-2.174,0.802,33.08
2026-02-13 16:30:53.077,85.900,0.028173,-0.017557,1.779962,1.347,-2.166,0.886,32.98
2026-02-13 16:30:53.177,86.000,0.031103,-0.016092,1.777520,1.316,-2.219,0.817,33.08
2026-02-13 16:30:53.277,86.100,0.029638,-0.018777,1.773370,1.217,-2.433,0.779,32.93
2026-02-13 16:30:53.377,86.200,0.030614,-0.015604,1.774835,1.355,-2.227,0.947,32.78
2026-02-13 16:30:53.477,86.300,0.031103,-0.015115,1.771661,1.294,-2.311,0.909,33.13
2026-02-13 16:30:53.577,86.400,0.032812,-0.018045,1.780938,1.065,-2.380,0.619,32.78
2026-02-13 16:30:53.677,86.500,0.034765,-0.017801,1.777032,1.187,-2.265,0.535,32.83
2026-02-13 16:30:53.777,86.600,0.032812,-0.014627,1.771172,1.225,-2.265,0.756,32.78
2026-02-13 16:30:53.877,86.700,0.033788,-0.013650,1.773614,1.179,-2.196,0.901,32.93
2026-02-13 16:30:53.977,86.800,0.029149,-0.017313,1.774590,1.248,-2.097,0.527,32.98
2026-02-13 16:30:54.077,86.900,0.030126,-0.015848,1.771661,1.011,-2.448,0.726,32.74
2026-02-13 16:30:54.177,87.000,0.025731,-0.016336,1.781182,0.973,-2.418,0.970,32.98
2026-02-13 16:30:54.277,87.100,0.029882,-0.011941,1.776055,1.263,-2.349,0.718,33.08
2026-02-13 16:30:54.377,87.200,0.032812,-0.014871,1.777520,1.370,-2.296,0.795,33.08
2026-02-13 16:30:54.477,87.300,0.029882,-0.014871,1.784844,1.187,-2.235,0.848,32.93
2026-02-13 16:30:54.577,87.400,0.029638,-0.015604,1.774346,1.362,-2.326,0.726,32.74
2026-02-13 16:30:54.677,87.500,0.027440,-0.015359,1.775811,0.927,-2.456,0.672,32.83
2026-02-13 16:30:54.777,87.600,0.029638,-0.018045,1.770196,1.149,-2.235,1.123,32.93
2026-02-13 16:30:54.877,87.700,0.030126,-0.012186,1.779473,1.118,-2.509,0.772,32.93
2026-02-13 16:30:54.977,87.800,0.026952,-0.019266,1.776299,1.072,-2.334,0.909,32.98
2026-02-13 16:30:55.077,87.900,0.034032,-0.022195,1.775567,1.019,-2.219,0.863,32.98
2026-02-13 16:30:55.177,88.000,0.029394,-0.015848,1.781915,1.179,-2.364,0.917,33.08
2026-02-13 16:30:55.277,88.100,0.026952,-0.014139,1.779962,1.080,-2.502,0.787,32.78
2026-02-13 16:30:55.377,88.200,0.030126,-0.016824,1.776055,1.194,-2.548,0.634,32.98
2026-02-13 16:30:55.477,88.300,0.026220,-0.011209,1.776299,1.149,-2.555,0.749,32.98
2026-02-13 16:30:55.577,88.400,0.032079,-0.012430,1.781915,1.316,-2.372,0.924,32.93
2026-02-13 16:30:55.677,88.500,0.032812,-0.020975,1.775323,1.171,-2.250,0.764,32.83
2026-02-13 16:30:55.777,88.600,0.030370,-0.018045,1.777764,1.156,-2.326,0.795,32.83
2026-02-13 16:30:55.877,88.700,0.029882,-0.016580,1.778497,1.080,-2.151,0.711,32.83
2026-02-13 16:30:55.977,88.800,0.028173,-0.010965,1.781915,1.278,-2.174,0.764,33.13
2026-02-13 16:30:56.077,88.900,0.033300,-0.013406,1.777032,1.072,-2.242,0.756,32.98
2026-02-13 16:30:56.177,89.000,0.031835,-0.014383,1.776055,1.011,-2.273,0.711,33.08
2026-02-13 16:30:56.277,89.100,0.032567,-0.018533,1.778008,1.049,-2.479,0.795,32.93
2026-02-13 16:30:56.377,89.200,0.028661,-0.015115,1.777032,1.133,-2.258,0.611,33.08
2026-02-13 16:30:56.477,89.300,0.034032,-0.019510,1.776544,1.080,-2.540,0.802,32.98
2026-02-13 16:30:56.577,89.400,0.029638,-0.015359,1.777520,1.339,-2.265,0.657,33.08
2026-02-13 16:30:56.677,89.500,0.034276,-0.013895,1.774835,1.309,-2.502,0.688,33.18
2026-02-13 16:30:56.777,89.600,0.027440,-0.015604,1.779717,1.103,-2.280,0.604,32.78
2026-02-13 16:30:56.877,89.700,0.030126,-0.014383,1.780694,1.286,-2.311,0.665,32.64
2026-02-13 16:30:56.977,89.800,0.027685,-0.014627,1.783380,1.149,-2.372,0.726,32.93
2026-02-13 16:30:57.077,89.900,0.028417,-0.013650,1.775567,1.149,-2.181,0.703,32.83
2026-02-13 16:30:57.177,90.000,0.033300,-0.013406,1.778497,1.087,-2.227,0.649,32.93
2026-02-13 16:30:57.277,90.100,0.032812,-0.018777,1.776788,1.110,-2.105,0.711,33.08
2026-02-13 16:30:57.377,90.200,0.030614,-0.015848,1.778008,1.339,-2.364,0.596,33.08
2026-02-13 16:30:57.477,90.300,0.029638,-0.012186,1.778008,1.507,-2.067,0.489,33.08
2026-02-13 16:30:57.577,90.400,0.029394,-0.014383,1.776544,1.248,-2.273,0.649,33.08
2026-02-13 16:30:57.677,90.500,0.030126,-0.015115,1.780206,1.103,-2.410,0.947,32.78
2026-02-13 16:30:57.777,90.600,0.027440,-0.014871,1.773370,1.370,-2.326,0.856,32.78
2026-02-13 16:30:57.877,90.700,0.032323,-0.015848,1.777276,1.240,-2.311,0.611,32.98
2026-02-13 16:30:57.977,90.800,0.030370,-0.017068,1.778253,1.309,-2.212,0.627,33.08
2026-02-13 16:30:58.077,90.900,0.027440,-0.014627,1.773126,1.156,-2.380,0.550,33.13
2026-02-13 16:30:58.177,91.000,0.028905,-0.017068,1.781915,1.011,-2.441,0.802,32.83
2026-02-13 16:30:58.277,91.100,0.029394,-0.016580,1.771172,1.019,-2.326,0.688,33.08
2026-02-13 16:30:58.377,91.200,0.032079,-0.014383,1.776788,1.065,-2.250,0.665,33.13
2026-02-13 16:30:58.477,91.300,0.029394,-0.014627,1.770196,1.042,-2.509,0.917,32.98
2026-02-13 16:30:58.577,91.400,0.034765,-0.014139,1.783380,1.126,-2.273,0.611,32.83
2026-02-13 16:30:58.677,91.500,0.030126,-0.016092,1.777276,1.515,-2.280,0.451,32.78
2026-02-13 16:30:58.777,91.600,0.031591,-0.019998,1.771172,1.179,-2.349,0.909,33.08
2026-02-13 16:30:58.877,91.700,0.029149,-0.013895,1.781915,1.278,-2.196,0.795,33.08
2026-02-13 16:30:58.977,91.800,0.032079,-0.012430,1.779229,1.187,-2.441,1.024,32.93
2026-02-13 16:30:59.077,91.900,0.028173,-0.010477,1.777032,0.996,-2.532,0.970,32.93
2026-02-13 16:30:59.177,92.000,0.028905,-0.018533,1.774835,1.179,-2.181,0.718,33.27
2026-02-13 16:30:59.277,92.100,0.029638,-0.015359,1.776788,1.477,-2.403,0.566,32.78
2026-02-13 16:30:59.377,92.200,0.029882,-0.013650,1.779229,1.194,-2.326,0.825,33.13
2026-02-13 16:30:59.477,92.300,0.030370,-0.013650,1.780450,1.187,-2.448,0.917,32.78
2026-02-13 16:30:59.577,92.400,0.030126,-0.017557,1.780938,1.171,-2.021,0.764,32.83
2026-02-13 16:30:59.677,92.500,0.030126,-0.011697,1.779229,1.324,-2.303,0.566,32.93
2026-02-13 16:30:59.777,92.600,0.032812,-0.018045,1.778008,1.179,-2.341,0.894,32.93
2026-02-13 16:30:59.877,92.700,0.024999,-0.017068,1.776299,0.797,-2.227,0.543,32.83
2026-02-13 16:30:59.977,92.800,0.028661,-0.015359,1.774590,1.149,-2.357,0.940,32.83
2026-02-13 16:31:00.077,92.900,0.029149,-0.014627,1.771905,1.210,-2.265,0.810,32.98
2026-02-13 16:31:00.177,93.000,0.029882,-0.019022,1.775811,1.087,-2.357,1.107,32.93
2026-02-13 16:31:00.277,93.100,0.032812,-0.014383,1.778008,1.110,-2.357,0.993,32.93
2026-02-13 16:31:00.377,93.200,0.031835,-0.017313,1.780206,1.057,-2.380,0.901,32.93
2026-02-13 16:31:00.477,93.300,0.031835,-0.016580,1.774835,1.118,-2.403,0.947,32.98
2026-02-13 16:31:00.577,93.400,0.030614,-0.010477,1.778008,1.217,-2.280,0.504,33.08
2026-02-13 16:31:00.677,93.500,0.029394,-0.014139,1.780694,1.187,-2.273,0.497,33.08
2026-02-13 16:31:00.777,93.600,0.029882,-0.015359,1.773858,1.316,-2.280,0.833,32.83
2026-02-13 16:31:00.877,93.700,0.031835,-0.011941,1.775323,0.958,-2.265,0.749,32.93
2026-02-13 16:31:00.977,93.800,0.030858,-0.018533,1.778741,1.301,-2.456,0.573,33.08
2026-02-13 16:31:01.077,93.900,0.028661,-0.017068,1.777032,1.194,-2.280,0.665,32.93
2026-02-13 16:31:01.177,94.000,0.033300,-0.020975,1.779962,1.065,-2.250,0.840,32.98
2026-02-13 16:31:01.277,94.100,0.027685,-0.016336,1.779229,1.240,-2.555,0.695,33.08
2026-02-13 16:31:01.377,94.200,0.028905,-0.014871,1.777276,1.080,-2.105,0.604,33.13
2026-02-13 16:31:01.477,94.300,0.033544,-0.019022,1.771172,0.965,-2.471,0.634,32.78
2026-02-13 16:31:01.577,94.400,0.034032,-0.017557,1.783380,1.339,-2.464,0.779,32.98
2026-02-13 16:31:01.677,94.500,0.027685,-0.014871,1.778985,1.110,-2.479,0.596,33.18
2026-02-13 16:31:01.777,94.600,0.030858,-0.017557,1.780938,1.171,-2.112,0.680,33.08
2026-02-13 16:31:01.877,94.700,0.032079,-0.010721,1.778008,1.118,-2.242,0.527,32.93
2026-02-13 16:31:01.977,94.800,0.028905,-0.012674,1.772881,1.080,-2.616,0.985,32.83
2026-02-13 16:31:02.077,94.900,0.029638,-0.017068,1.776788,1.294,-2.532,0.871,32.83
2026-02-13 16:31:02.177,95.000,0.030858,-0.016092,1.770928,1.263,-2.250,0.985,33.18
2026-02-13 16:31:02.277,95.100,0.031103,-0.014383,1.774590,1.446,-2.013,0.840,32.83
2026-02-13 16:31:02.377,95.200,0.030126,-0.019998,1.777520,1.141,-2.525,0.627,33.32
2026-02-13 16:31:02.477,95.300,0.030126,-0.019022,1.776788,1.171,-2.280,0.504,32.78
2026-02-13 16:31:02.577,95.400,0.031103,-0.016824,1.776299,1.339,-2.273,0.604,32.64
2026-02-13 16:31:02.677,95.500,0.031103,-0.016580,1.782891,1.141,-2.418,0.634,32.98
2026-02-13 16:31:02.777,95.600,0.030370,-0.011209,1.779473,0.935,-2.326,0.909,32.93
2026-02-13 16:31:02.877,95.700,0.033300,-0.017068,1.774346,1.080,-2.425,1.008,33.27
2026-02-13 16:31:02.977,95.800,0.030370,-0.013650,1.773614,1.080,-2.380,0.795,33.08
2026-02-13 16:31:03.077,95.900,0.026464,-0.016580,1.781915,1.301,-2.448,0.787,32.93
2026-02-13 16:31:03.177,96.000,0.031347,-0.014871,1.778497,0.965,-2.319,0.726,33.08
2026-02-13 16:31:03.277,96.100,0.028661,-0.017801,1.783868,1.110,-2.044,0.688,32.59
2026-02-13 16:31:03.377,96.200,0.027440,-0.015359,1.777276,1.011,-2.296,0.817,32.83
2026-02-13 16:31:03.477,96.300,0.028417,-0.015604,1.778985,1.439,-2.433,0.848,33.27
2026-02-13 16:31:03.577,96.400,0.030370,-0.013650,1.778497,1.034,-2.258,0.611,32.93
2026-02-13 16:31:03.677,96.500,0.030126,-0.013162,1.781426,1.347,-2.258,0.825,32.64
2026-02-13 16:31:03.777,96.600,0.029638,-0.016336,1.778741,1.332,-2.548,0.474,33.08
2026-02-13 16:31:03.877,96.700,0.030370,-0.018289,1.778497,1.439,-2.662,0.596,32.83
2026-02-13 16:31:03.977,96.800,0.027196,-0.014871,1.774346,1.164,-2.235,0.871,33.08
2026-02-13 16:31:04.077,96.900,0.031591,-0.017557,1.775811,1.210,-2.326,0.649,33.08
2026-02-13 16:31:04.177,97.000,0.028173,-0.015115,1.776055,1.278,-2.654,0.871,32.78
2026-02-13 16:31:04.277,97.100,0.030370,-0.012918,1.778008,1.080,-2.326,1.031,32.83
2026-02-13 16:31:04.377,97.200,0.030126,-0.013406,1.770196,1.271,-2.494,0.649,32.93
2026-02-13 16:31:04.477,97.300,0.028905,-0.018777,1.767266,1.240,-1.998,0.878,32.83
2026-02-13 16:31:04.577,97.400,0.033788,-0.013162,1.779229,0.958,-2.380,0.588,32.93
2026-02-13 16:31:04.677,97.500,0.030614,-0.014871,1.771905,0.904,-2.158,0.833,33.18
2026-02-13 16:31:04.777,97.600,0.028173,-0.015359,1.778497,1.149,-2.410,1.016,32.78
2026-02-13 16:31:04.877,97.700,0.031347,-0.014383,1.772881,1.019,-2.212,0.779,32.98
2026-02-13 16:31:04.977,97.800,0.026708,-0.013650,1.778497,1.110,-2.143,0.833,33.08
2026-02-13 16:31:05.077,97.900,0.029394,-0.019510,1.778741,1.087,-2.341,0.749,32.98
2026-02-13 16:31:05.177,98.000,0.027929,-0.013650,1.769952,1.210,-2.120,0.795,32.59
2026-02-13 16:31:05.277,98.100,0.031103,-0.016580,1.776299,1.286,-2.296,0.726,33.27
2026-02-13 16:31:05.377,98.200,0.032567,-0.014627,1.780206,1.171,-2.181,0.840,32.98
2026-02-13 16:31:05.477,98.300,0.027929,-0.015359,1.782159,1.362,-2.479,0.627,32.83
2026-02-13 16:31:05.577,98.400,0.030370,-0.010721,1.772393,1.003,-2.250,0.856,32.59
2026-02-13 16:31:05.677,98.500,0.031347,-0.015359,1.778985,1.171,-2.059,0.726,32.74
2026-02-13 16:31:05.777,98.600,0.028905,-0.016336,1.776544,1.194,-2.364,0.520,33.27
2026-02-13 16:31:05.877,98.700,0.029394,-0.014383,1.777276,1.378,-2.456,0.718,32.83
2026-02-13 16:31:05.977,98.800,0.032323,-0.014139,1.775811,1.271,-2.357,0.856,32.74
2026-02-13 16:31:06.077,98.900,0.032323,-0.014871,1.774590,1.141,-2.296,0.619,32.74
2026-02-13 16:31:06.177,99.000,0.029882,-0.016824,1.781671,1.240,-2.410,0.665,33.13
2026-02-13 16:31:06.277,99.100,0.032567,-0.015115,1.776788,1.087,-2.326,0.787,32.98
2026-02-13 16:31:06.377,99.200,0.033544,-0.015115,1.773858,1.278,-2.296,0.894,32.93
2026-02-13 16:31:06.477,99.300,0.029394,-0.015848,1.775811,1.034,-2.082,0.947,33.08
2026-02-13 16:31:06.577,99.400,0.032079,-0.017801,1.773858,1.171,-2.326,0.695,33.08
2026-02-13 16:31:06.677,99.500,0.030370,-0.012918,1.774346,1.217,-2.258,1.031,33.18
2026-02-13 16:31:06.777,99.600,0.030858,-0.014871,1.776299,1.126,-2.326,0.657,32.98
2026-02-13 16:31:06.877,99.700,0.028417,-0.013162,1.780450,1.324,-2.235,1.092,32.59
2026-02-13 16:31:06.977,99.800,0.031591,-0.013895,1.770196,1.179,-2.326,0.428,32.93
2026-02-13 16:31:07.077,99.900,0.033300,-0.015115,1.776055,1.248,-2.280,0.856,32.78
2026-02-13 16:31:07.177,100.000,0.027929,-0.012186,1.775079,1.149,-1.998,0.993,33.08
2026-02-13 16:31:07.277,100.100,0.034521,-0.014871,1.770684,1.149,-2.334,0.680,33.08
2026-02-13 16:31:07.377,100.200,0.030370,-0.016336,1.774835,1.026,-2.250,0.504,32.98
2026-02-13 16:31:07.477,100.300,0.029882,-0.010965,1.776055,1.171,-1.937,0.604,32.98
2026-02-13 16:31:07.577,100.400,0.035985,-0.016336,1.773370,1.568,-2.319,0.680,32.93
2026-02-13 16:31:07.677,100.500,0.032323,-0.014383,1.773126,1.087,-2.288,0.901,33.08
2026-02-13 16:31:07.777,100.600,0.028173,-0.011453,1.778008,1.454,-2.433,0.901,33.08
2026-02-13 16:31:07.877,100.700,0.025487,-0.014871,1.778008,1.133,-2.235,0.940,32.74
2026-02-13 16:31:07.977,100.800,0.032567,-0.015115,1.771661,1.133,-2.006,0.543,33.08
2026-02-13 16:31:08.077,100.900,0.031103,-0.019022,1.782891,1.309,-2.151,0.878,32.59
2026-02-13 16:31:08.177,101.000,0.027685,-0.015359,1.777764,1.355,-1.899,0.978,33.13
2026-02-13 16:31:08.277,101.100,0.030858,-0.012430,1.771172,1.026,-2.151,0.634,32.74
2026-02-13 16:31:08.377,101.200,0.034276,-0.012918,1.777276,1.248,-2.273,0.581,32.83
2026-02-13 16:31:08.477,101.300,0.026464,-0.016092,1.775811,1.171,-2.303,0.718,33.13
2026-02-13 16:31:08.577,101.400,0.032567,-0.013895,1.769952,1.271,-2.280,0.703,33.08
2026-02-13 16:31:08.677,101.500,0.033544,-0.017068,1.771661,1.110,-2.410,0.695,32.64
2026-02-13 16:31:08.777,101.600,0.032323,-0.018289,1.779229,1.080,-2.250,0.688,32.83
2026-02-13 16:31:08.877,101.700,0.031347,-0.015848,1.774590,1.194,-2.364,0.779,32.93
2026-02-13 16:31:08.977,101.800,0.028173,-0.016580,1.772393,1.171,-2.326,0.649,32.93
2026-02-13 16:31:09.077,101.900,0.028661,-0.016336,1.776544,1.187,-2.265,0.779,33.13
2026-02-13 16:31:09.177,102.000,0.031591,-0.014871,1.778497,1.355,-2.189,0.772,32.93
2026-02-13 16:31:09.277,102.100,0.027440,-0.017313,1.779229,0.996,-2.235,1.031,32.83
2026-02-13 16:31:09.377,102.200,0.032567,-0.018045,1.776544,0.935,-2.258,0.741,32.93
2026-02-13 16:31:09.477,102.300,0.028661,-0.016092,1.775079,1.187,-1.899,0.848,32.98
2026-02-13 16:31:09.577,102.400,0.031591,-0.016824,1.779717,0.897,-1.998,0.611,32.78
2026-02-13 16:31:09.677,102.500,0.032812,-0.015604,1.774590,1.118,-2.258,0.871,32.98
2026-02-13 16:31:09.777,102.600,0.026952,-0.018045,1.779229,1.164,-2.258,0.634,32.93
2026-02-13 16:31:09.877,102.700,0.031835,-0.014383,1.774102,1.286,-2.425,1.024,33.08
2026-02-13 16:31:09.977,102.800,0.030370,-0.014139,1.778497,1.332,-2.441,0.550,32.83
2026-02-13 16:31:10.077,102.900,0.030858,-0.012674,1.780938,1.087,-2.082,1.100,33.13
2026-02-13 16:31:10.177,103.000,0.029638,-0.019022,1.774835,1.217,-2.334,0.779,32.78
2026-02-13 16:31:10.277,103.100,0.031347,-0.014383,1.776544,1.232,-2.143,0.787,32.93
2026-02-13 16:31:10.377,103.200,0.028173,-0.013406,1.773370,0.927,-2.387,0.810,33.08
2026-02-13 16:31:10.477,103.300,0.029882,-0.013650,1.776544,1.179,-2.464,0.718,32.98
2026-02-13 16:31:10.577,103.400,0.029882,-0.017313,1.778253,1.439,-2.372,0.733,32.74
2026-02-13 16:31:10.677,103.500,0.031835,-0.016336,1.772393,1.232,-2.387,0.619,32.83
2026-02-13 16:31:10.777,103.600,0.032079,-0.015848,1.779717,1.003,-2.319,0.741,32.83
2026-02-13 16:31:10.877,103.700,0.032079,-0.015359,1.774102,1.171,-2.570,0.840,32.54
2026-02-13 16:31:10.977,103.800,0.033056,-0.017068,1.772149,1.095,-2.593,0.711,32.93
2026-02-13 16:31:11.077,103.900,0.028417,-0.011697,1.776544,1.530,-2.181,0.642,32.78
2026-02-13 16:31:11.177,104.000,0.028417,-0.013650,1.775079,1.339,-2.349,0.962,32.98
2026-02-13 16:31:11.277,104.100,0.028661,-0.014871,1.773614,1.240,-2.563,0.802,33.08
2026-02-13 16:31:11.377,104.200,0.029394,-0.015359,1.779717,1.034,-2.425,1.085,32.93
2026-02-13 16:31:11.477,104.300,0.032812,-0.014383,1.777764,1.187,-2.563,0.695,33.13
2026-02-13 16:31:11.577,104.400,0.032567,-0.015115,1.784112,1.263,-2.112,0.466,32.98
2026-02-13 16:31:11.677,104.500,0.031591,-0.015604,1.772881,1.263,-2.219,0.581,33.27
2026-02-13 16:31:11.777,104.600,0.029394,-0.014627,1.780206,1.217,-2.296,0.619,32.74
2026-02-13 16:31:11.877,104.700,0.030126,-0.018045,1.779473,1.072,-2.464,0.741,32.78
2026-02-13 16:31:11.977,104.800,0.035009,-0.014627,1.778741,1.263,-2.334,0.611,32.83
2026-02-13 16:31:12.077,104.900,0.027929,-0.017313,1.779717,0.988,-2.296,0.756,32.78
2026-02-13 16:31:12.177,105.000,0.029882,-0.012918,1.771172,1.210,-2.319,0.886,33.13
2026-02-13 16:31:12.277,105.100,0.032079,-0.012430,1.776299,0.950,-2.242,0.649,32.59
2026-02-13 16:31:12.377,105.200,0.029882,-0.015359,1.778985,1.271,-2.372,0.932,33.13
2026-02-13 16:31:12.477,105.300,0.030370,-0.016824,1.779229,1.118,-2.189,0.718,33.13
2026-02-13 16:31:12.577,105.400,0.030614,-0.014627,1.772149,1.316,-2.609,0.848,32.93
2026-02-13 16:31:12.677,105.500,0.030370,-0.018045,1.775079,1.103,-2.410,0.649,32.83
2026-02-13 16:31:12.777,105.600,0.028905,-0.011697,1.765313,1.042,-2.441,0.985,32.83
2026-02-13 16:31:12.877,105.700,0.027440,-0.011453,1.778253,1.301,-2.525,0.756,32.83
2026-02-13 16:31:12.977,105.800,0.029394,-0.017801,1.779229,1.240,-2.288,0.642,32.83
2026-02-13 16:31:13.077,105.900,0.029149,-0.012918,1.775323,1.080,-2.349,0.543,32.98
2026-02-13 16:31:13.177,106.000,0.032323,-0.015359,1.781915,1.133,-2.212,0.772,33.13
2026-02-13 16:31:13.277,106.100,0.031591,-0.015115,1.782403,1.126,-2.311,0.817,32.93
2026-02-13 16:31:13.377,106.200,0.029394,-0.015848,1.778497,1.316,-2.479,0.795,33.08
2026-02-13 16:31:13.477,106.300,0.026220,-0.015115,1.773858,1.225,-2.265,0.779,32.83
2026-02-13 16:31:13.577,106.400,0.032323,-0.014383,1.775567,1.278,-2.403,0.795,32.78
2026-02-13 16:31:13.677,106.500,0.028905,-0.015604,1.775079,1.362,-2.319,0.901,32.83
2026-02-13 16:31:13.777,106.600,0.032567,-0.017557,1.773858,1.141,-2.296,0.688,32.98
2026-02-13 16:31:13.877,106.700,0.033544,-0.015115,1.775811,1.156,-2.105,0.657,32.98
2026-02-13 16:31:13.977,106.800,0.029149,-0.012674,1.774346,1.149,-2.258,0.497,33.13
2026-02-13 16:31:14.077,106.900,0.029394,-0.013895,1.770196,1.324,-2.242,0.688,32.98
2026-02-13 16:31:14.177,107.000,0.029638,-0.014383,1.778008,1.179,-2.448,0.604,32.83
2026-02-13 16:31:14.277,107.100,0.030126,-0.014383,1.775811,1.271,-2.319,0.863,32.78
2026-02-13 16:31:14.377,107.200,0.034521,-0.014627,1.773126,0.988,-2.280,0.672,33.08
2026-02-13 16:31:14.477,107.300,0.033056,-0.015604,1.775567,0.843,-2.364,1.008,32.98
2026-02-13 16:31:14.577,107.400,0.030858,-0.016824,1.775079,1.217,-2.128,1.054,32.78
2026-02-13 16:31:14.677,107.500,0.028173,-0.015115,1.776299,1.248,-2.387,0.795,32.74
2026-02-13 16:31:14.777,107.600,0.030126,-0.016336,1.781915,1.423,-2.326,0.672,32.74
2026-02-13 16:31:14.877,107.700,0.030370,-0.018045,1.779229,1.278,-2.326,0.718,33.08
2026-02-13 16:31:14.977,107.800,0.032812,-0.015359,1.771905,0.988,-2.212,0.741,32.83
2026-02-13 16:31:15.077,107.900,0.031347,-0.014139,1.779962,1.194,-2.288,0.657,33.13
2026-02-13 16:31:15.177,108.000,0.031103,-0.016580,1.777276,1.118,-2.334,0.772,32.98
2026-02-13 16:31:15.277,108.100,0.032567,-0.014627,1.778497,1.042,-2.311,0.726,32.93
2026-02-13 16:31:15.377,108.200,0.032567,-0.016336,1.775079,1.210,-2.105,0.810,32.74
2026-02-13 16:31:15.477,108.300,0.030614,-0.018045,1.781671,1.072,-2.196,0.825,32.93
2026-02-13 16:31:15.577,108.400,0.031347,-0.018045,1.780694,1.309,-2.273,1.031,33.08
2026-02-13 16:31:15.677,108.500,0.030370,-0.015359,1.780450,1.049,-2.303,1.024,33.08
2026-02-13 16:31:15.777,108.600,0.025731,-0.015359,1.780450,1.179,-2.319,0.665,32.83
2026-02-13 16:31:15.877,108.700,0.031103,-0.017068,1.774835,1.217,-2.418,0.962,32.59
2026-02-13 16:31:15.977,108.800,0.033788,-0.018777,1.777032,1.194,-2.517,0.985,32.78
2026-02-13 16:31:16.077,108.900,0.028417,-0.012674,1.783135,1.370,-2.677,1.016,32.98
2026-02-13 16:31:16.177,109.000,0.030614,-0.019266,1.775567,1.202,-2.380,0.665,32.78
2026-02-13 16:31:16.277,109.100,0.028417,-0.017068,1.777520,1.110,-2.181,0.909,33.08
2026-02-13 16:31:16.377,109.200,0.030858,-0.014383,1.774346,1.126,-2.120,0.634,32.78
2026-02-13 16:31:16.477,109.300,0.029882,-0.014627,1.773858,1.118,-2.403,1.008,32.78
2026-02-13 16:31:16.577,109.400,0.030126,-0.015359,1.777764,1.065,-2.525,0.863,32.78
2026-02-13 16:31:16.677,109.500,0.032079,-0.016092,1.775567,1.400,-2.364,0.550,32.78
2026-02-13 16:31:16.777,109.600,0.030614,-0.015115,1.778008,1.141,-2.258,0.733,32.59
2026-02-13 16:31:16.877,109.700,0.033544,-0.015604,1.774590,1.232,-2.349,1.054,33.08
2026-02-13 16:31:16.977,109.800,0.027929,-0.012674,1.773858,1.141,-2.067,0.611,32.83
2026-02-13 16:31:17.077,109.900,0.028905,-0.020730,1.778985,1.416,-2.380,0.688,33.08
2026-02-13 16:31:17.177,110.000,0.030126,-0.015115,1.779473,1.355,-2.433,0.604,32.98
2026-02-13 16:31:17.277,110.100,0.031835,-0.015604,1.780450,1.362,-2.578,0.688,33.27
2026-02-13 16:31:17.377,110.200,0.029394,-0.016580,1.766778,1.133,-2.349,0.695,32.93
2026-02-13 16:31:17.477,110.300,0.029882,-0.017313,1.778253,1.171,-2.090,0.802,32.98
2026-02-13 16:31:17.577,110.400,0.031103,-0.013162,1.780694,1.087,-2.112,0.695,32.83
2026-02-13 16:31:17.677,110.500,0.029149,-0.019266,1.774835,0.942,-2.265,0.649,32.83
2026-02-13 16:31:17.777,110.600,0.031347,-0.015604,1.777276,1.164,-2.296,0.657,32.98
2026-02-13 16:31:17.877,110.700,0.032567,-0.015848,1.777276,0.927,-2.204,0.978,33.08
2026-02-13 16:31:17.977,110.800,0.028417,-0.013650,1.776788,1.149,-2.189,0.840,32.98
2026-02-13 16:31:18.077,110.900,0.029882,-0.015359,1.780206,1.202,-2.067,0.733,33.13
2026-02-13 16:31:18.177,111.000,0.030614,-0.014627,1.770440,1.179,-2.341,0.878,32.74
2026-02-13 16:31:18.277,111.100,0.032079,-0.019754,1.774590,0.881,-2.548,0.520,32.98
2026-02-13 16:31:18.377,111.200,0.031591,-0.012186,1.777520,1.301,-2.433,0.726,32.78
2026-02-13 16:31:18.477,111.300,0.031347,-0.013650,1.778253,1.057,-2.311,0.711,32.83
2026-02-13 16:31:18.577,111.400,0.029149,-0.014871,1.778008,1.232,-2.189,0.474,32.74
2026-02-13 16:31:18.677,111.500,0.032323,-0.018289,1.775811,1.034,-2.364,0.634,33.08
2026-02-13 16:31:18.777,111.600,0.030126,-0.013406,1.777032,0.904,-2.525,0.840,33.08
2026-02-13 16:31:18.877,111.700,0.035253,-0.015359,1.777032,1.294,-2.174,0.764,32.93
2026-02-13 16:31:18.977,111.800,0.033544,-0.015848,1.777032,1.149,-2.212,0.764,33.08
2026-02-13 16:31:19.077,111.900,0.029882,-0.015359,1.772881,1.255,-2.082,0.802,32.98
2026-02-13 16:31:19.177,112.000,0.029638,-0.014871,1.773126,1.026,-2.395,0.795,32.93
2026-02-13 16:31:19.277,112.100,0.031103,-0.010721,1.779473,1.049,-2.166,0.909,32.74
2026-02-13 16:31:19.377,112.200,0.029638,-0.016336,1.775323,1.164,-2.036,0.741,32.83
2026-02-13 16:31:19.477,112.300,0.031835,-0.014383,1.774346,1.026,-2.196,0.878,33.08
2026-02-13 16:31:19.577,112.400,0.034276,-0.013650,1.775567,1.118,-2.280,0.802,32.93
2026-02-13 16:31:19.677,112.500,0.026708,-0.018777,1.773126,1.103,-2.296,0.634,32.83
2026-02-13 16:31:19.777,112.600,0.031103,-0.017313,1.781426,1.095,-2.128,1.008,32.83
2026-02-13 16:31:19.877,112.700,0.030370,-0.013650,1.777276,1.110,-2.403,0.810,32.93
2026-02-13 16:31:19.977,112.800,0.032079,-0.019266,1.776055,1.110,-2.242,0.970,32.93
2026-02-13 16:31:20.077,112.900,0.031835,-0.015848,1.782403,1.133,-2.311,0.985,32.83
2026-02-13 16:31:20.177,113.000,0.032812,-0.016824,1.778985,1.393,-2.120,0.970,32.78
2026-02-13 16:31:20.277,113.100,0.034276,-0.015115,1.778253,1.210,-2.288,0.741,33.13
2026-02-13 16:31:20.377,113.200,0.031103,-0.016092,1.781671,1.118,-2.319,0.718,33.08
2026-02-13 16:31:20.477,113.300,0.032812,-0.017068,1.777764,1.095,-2.067,0.573,32.83
2026-02-13 16:31:20.577,113.400,0.031835,-0.016336,1.774835,1.087,-2.296,1.085,32.98
2026-02-13 16:31:20.677,113.500,0.030614,-0.017068,1.772393,1.217,-2.219,0.772,32.83
2026-02-13 16:31:20.777,113.600,0.031103,-0.014383,1.777032,1.217,-2.029,0.909,32.78
2026-02-13 16:31:20.877,113.700,0.031103,-0.014139,1.774835,0.981,-2.196,0.978,32.74
2026-02-13 16:31:20.977,113.800,0.029149,-0.019266,1.777032,1.042,-2.280,0.909,32.93
2026-02-13 16:31:21.077,113.900,0.030614,-0.011209,1.778985,1.110,-2.395,0.634,32.98
2026-02-13 16:31:21.177,114.000,0.029638,-0.014139,1.778008,1.141,-2.380,0.833,32.64
2026-02-13 16:31:21.277,114.100,0.029882,-0.016336,1.772881,1.095,-2.548,0.863,32.83
2026-02-13 16:31:21.377,114.200,0.033788,-0.014871,1.775079,1.187,-2.273,0.535,32.78
2026-02-13 16:31:21.477,114.300,0.031591,-0.012186,1.783135,1.202,-2.380,1.016,33.08
2026-02-13 16:31:21.577,114.400,0.031347,-0.015604,1.779473,1.164,-2.357,0.596,32.78
2026-02-13 16:31:21.677,114.500,0.028905,-0.012918,1.781426,1.316,-2.357,0.871,32.83
2026-02-13 16:31:21.777,114.600,0.031591,-0.017313,1.777520,1.225,-2.349,0.756,32.78
2026-02-13 16:31:21.877,114.700,0.031347,-0.020242,1.774346,1.316,-2.372,0.718,32.93
2026-02-13 16:31:21.977,114.800,0.031347,-0.016092,1.772881,1.156,-2.425,0.749,33.08
2026-02-13 16:31:22.077,114.900,0.029882,-0.015359,1.775811,1.225,-2.303,0.573,33.13
2026-02-13 16:31:22.177,115.000,0.031103,-0.014383,1.778985,1.095,-2.517,0.703,33.08
2026-02-13 16:31:22.277,115.100,0.029149,-0.014383,1.782159,1.202,-2.525,0.764,32.93
2026-02-13 16:31:22.377,115.200,0.029394,-0.016336,1.770684,1.225,-2.448,0.932,32.78
2026-02-13 16:31:22.477,115.300,0.028905,-0.017068,1.780694,1.095,-2.334,0.955,32.74
2026-02-13 16:31:22.577,115.400,0.030614,-0.016580,1.780450,1.232,-2.067,0.795,32.74
2026-02-13 16:31:22.677,115.500,0.032323,-0.016824,1.769952,1.171,-2.410,0.985,32.78
2026-02-13 16:31:22.777,115.600,0.027196,-0.017801,1.778741,1.171,-2.296,0.810,32.64
2026-02-13 16:31:22.877,115.700,0.031347,-0.013162,1.779473,1.255,-2.303,0.909,32.83
2026-02-13 16:31:22.977,115.800,0.030370,-0.014139,1.778008,0.843,-2.326,0.825,33.13
2026-02-13 16:31:23.077,115.900,0.033056,-0.017068,1.777520,1.255,-2.311,0.733,32.98
2026-02-13 16:31:23.177,116.000,0.025976,-0.016336,1.776055,1.492,-2.082,0.940,32.59
2026-02-13 16:31:23.277,116.100,0.030370,-0.018533,1.773614,1.393,-2.273,0.649,33.08
2026-02-13 16:31:23.377,116.200,0.032323,-0.014871,1.771661,1.210,-2.364,0.649,32.93
2026-02-13 16:31:23.477,116.300,0.029394,-0.016824,1.775567,1.355,-2.471,0.527,32.83
2026-02-13 16:31:23.577,116.400,0.032567,-0.014383,1.769952,1.156,-2.357,0.573,33.08
2026-02-13 16:31:23.677,116.500,0.028173,-0.016092,1.772881,1.118,-2.464,0.886,32.93
2026-02-13 16:31:23.777,116.600,0.028417,-0.013162,1.773858,1.362,-2.158,0.886,32.64
2026-02-13 16:31:23.877,116.700,0.026708,-0.014871,1.774835,0.996,-2.051,0.688,32.64
2026-02-13 16:31:23.977,116.800,0.032812,-0.015359,1.775079,1.461,-2.341,0.810,32.83
2026-02-13 16:31:24.077,116.900,0.031835,-0.013406,1.777764,1.255,-2.074,0.344,32.83
2026-02-13 16:31:24.177,117.000,0.033300,-0.017313,1.775079,1.042,-2.258,0.856,32.78
2026-02-13 16:31:24.277,117.100,0.032323,-0.014139,1.779717,1.232,-2.196,0.772,32.83
2026-02-13 16:31:24.377,117.200,0.029394,-0.016824,1.774346,1.149,-2.219,0.779,33.08
2026-02-13 16:31:24.477,117.300,0.029638,-0.018045,1.773370,1.202,-2.196,1.077,33.08
2026-02-13 16:31:24.577,117.400,0.034032,-0.012674,1.774835,1.263,-2.258,0.848,33.13
2026-02-13 16:31:24.677,117.500,0.029882,-0.011453,1.773370,0.981,-2.029,0.886,33.08
2026-02-13 16:31:24.777,117.600,0.031103,-0.013895,1.778741,1.294,-2.456,0.657,33.08
2026-02-13 16:31:24.877,117.700,0.029149,-0.017801,1.776544,1.057,-2.372,0.878,33.13
2026-02-13 16:31:24.977,117.800,0.029638,-0.019510,1.772637,1.133,-2.418,0.985,32.64
2026-02-13 16:31:25.077,117.900,0.031103,-0.013406,1.777520,1.217,-2.258,0.680,32.83
2026-02-13 16:31:25.177,118.000,0.032567,-0.016336,1.779962,1.278,-2.265,0.848,32.64
2026-02-13 16:31:25.277,118.100,0.029149,-0.014383,1.774102,1.217,-2.174,0.779,32.74
2026-02-13 16:31:25.377,118.200,0.030126,-0.017313,1.783624,1.133,-2.311,1.062,32.83
2026-02-13 16:31:25.477,118.300,0.030370,-0.016092,1.783624,1.080,-2.090,1.191,32.83
2026-02-13 16:31:25.577,118.400,0.028905,-0.017557,1.775811,1.141,-2.380,0.947,32.93
2026-02-13 16:31:25.677,118.500,0.031591,-0.018533,1.779229,1.248,-2.135,0.978,32.98
2026-02-13 16:31:25.777,118.600,0.026464,-0.016580,1.772881,1.225,-2.380,0.703,32.93
2026-02-13 16:31:25.877,118.700,0.030370,-0.017801,1.780938,1.225,-2.242,0.482,32.64
2026-02-13 16:31:25.977,118.800,0.031591,-0.015115,1.776055,1.149,-2.441,0.688,32.74
2026-02-13 16:31:26.077,118.900,0.029638,-0.017557,1.778008,1.156,-2.258,0.688,33.08
2026-02-13 16:31:26.177,119.000,0.026952,-0.014139,1.773126,1.187,-2.242,0.985,33.08
2026-02-13 16:31:26.277,119.100,0.027440,-0.016336,1.776055,1.286,-2.326,0.863,32.78
2026-02-13 16:31:26.377,119.200,0.029394,-0.013895,1.773858,1.378,-2.235,0.756,32.98
2026-02-13 16:31:26.477,119.300,0.030614,-0.016824,1.779717,1.126,-2.357,0.848,32.93
2026-02-13 16:31:26.577,119.400,0.026952,-0.014383,1.777276,1.095,-2.166,0.550,32.83
2026-02-13 16:31:26.677,119.500,0.027929,-0.016092,1.771905,1.240,-2.059,0.917,32.83
2026-02-13 16:31:26.777,119.600,0.029638,-0.016580,1.778985,1.149,-2.341,0.901,32.83
2026-02-13 16:31:26.877,119.700,0.031347,-0.013406,1.778253,1.126,-2.273,0.795,33.08
2026-02-13 16:31:26.977,119.800,0.029394,-0.013406,1.781671,1.240,-2.387,0.917,32.78
2026-02-13 16:31:27.077,119.900,0.031347,-0.015115,1.775323,1.332,-2.280,0.527,32.98
2026-02-13 16:31:27.177,120.000,0.030126,-0.015115,1.778008,0.820,-2.380,0.787,32.74
2026-02-13 16:31:27.277,120.100,0.027929,-0.019266,1.777276,1.133,-2.097,0.535,32.78
2026-02-13 16:31:27.377,120.200,0.028905,-0.016336,1.778497,1.110,-2.204,0.588,32.74
2026-02-13 16:31:27.477,120.300,0.030370,-0.016824,1.772149,1.118,-2.112,0.680,32.83
2026-02-13 16:31:27.577,120.400,0.038671,-0.014871,1.776788,1.057,-2.074,0.894,32.98
2026-02-13 16:31:27.677,120.500,0.027440,-0.017313,1.776299,0.958,-2.227,0.703,33.08
2026-02-13 16:31:27.777,120.600,0.026952,-0.013406,1.778497,1.210,-1.983,0.627,32.98
2026-02-13 16:31:27.877,120.700,0.028905,-0.012918,1.776055,1.255,-2.471,0.672,32.83
2026-02-13 16:31:27.977,120.800,0.030858,-0.008768,1.772637,1.286,-2.074,0.886,32.83
2026-02-13 16:31:28.077,120.900,0.030370,-0.016092,1.780450,1.309,-2.425,0.947,33.08
2026-02-13 16:31:28.177,121.000,0.031103,-0.013406,1.778741,1.126,-2.143,0.688,32.93
2026-02-13 16:31:28.277,121.100,0.030126,-0.015359,1.776544,1.087,-2.189,0.940,32.64
2026-02-13 16:31:28.377,121.200,0.032079,-0.015359,1.777764,1.194,-2.280,0.917,32.78
2026-02-13 16:31:28.477,121.300,0.032323,-0.019022,1.780694,1.110,-2.586,0.901,32.74
2026-02-13 16:31:28.577,121.400,0.027440,-0.015115,1.776299,0.790,-2.403,0.688,32.83
2026-02-13 16:31:28.677,121.500,0.026708,-0.011697,1.780450,1.072,-2.112,0.657,33.08
2026-02-13 16:31:28.777,121.600,0.028417,-0.014627,1.778497,1.439,-2.258,0.604,32.74
2026-02-13 16:31:28.877,121.700,0.031835,-0.010721,1.779229,0.973,-2.219,0.871,32.98
2026-02-13 16:31:28.977,121.800,0.028173,-0.011697,1.769464,1.263,-2.082,0.901,32.78
2026-02-13 16:31:29.077,121.900,0.028661,-0.018777,1.776299,1.065,-2.494,0.871,33.13
2026-02-13 16:31:29.177,122.000,0.032079,-0.012430,1.774102,1.126,-2.540,0.535,32.93
2026-02-13 16:31:29.277,122.100,0.028173,-0.015604,1.776055,1.294,-2.357,0.787,32.83
2026-02-13 16:31:29.377,122.200,0.029394,-0.014383,1.780206,1.194,-2.235,0.894,33.08
2026-02-13 16:31:29.477,122.300,0.030614,-0.013162,1.773126,0.981,-2.410,0.940,32.93
2026-02-13 16:31:29.577,122.400,0.032079,-0.014871,1.776055,1.347,-2.395,0.772,33.08
2026-02-13 16:31:29.677,122.500,0.028173,-0.017068,1.777032,1.248,-2.418,0.947,32.98
2026-02-13 16:31:29.777,122.600,0.028417,-0.014383,1.774346,1.011,-2.334,0.863,33.18
2026-02-13 16:31:29.877,122.700,0.029149,-0.018045,1.776788,1.080,-2.288,0.909,32.93
2026-02-13 16:31:29.977,122.800,0.030370,-0.014871,1.782891,0.935,-2.112,0.993,32.83
2026-02-13 16:31:30.077,122.900,0.028905,-0.012918,1.776788,1.149,-2.219,0.703,32.83
2026-02-13 16:31:30.177,123.000,0.030370,-0.015848,1.775567,1.057,-2.166,0.680,32.93
2026-02-13 16:31:30.277,123.100,0.028661,-0.016580,1.774346,1.248,-2.578,0.581,32.64
2026-02-13 16:31:30.377,123.200,0.034521,-0.016824,1.775079,1.049,-2.395,0.558,32.83
2026-02-13 16:31:30.477,123.300,0.035009,-0.012186,1.780694,1.179,-2.334,0.932,32.78
2026-02-13 16:31:30.577,123.400,0.034765,-0.015359,1.782647,1.278,-2.303,0.871,32.74
2026-02-13 16:31:30.677,123.500,0.028905,-0.015359,1.771417,1.423,-2.632,0.962,32.98
2026-02-13 16:31:30.777,123.600,0.030370,-0.017557,1.776788,1.171,-2.013,0.833,32.98
2026-02-13 16:31:30.877,123.700,0.032567,-0.016580,1.778497,1.278,-2.395,0.764,33.08
2026-02-13 16:31:30.977,123.800,0.031835,-0.019022,1.774590,1.194,-2.143,0.718,33.18
2026-02-13 16:31:31.077,123.900,0.029149,-0.017313,1.773858,1.118,-2.288,0.894,33.08
2026-02-13 16:31:31.177,124.000,0.030370,-0.013162,1.774346,1.110,-2.410,1.039,33.08
2026-02-13 16:31:31.277,124.100,0.029394,-0.018533,1.773370,1.355,-2.357,0.764,32.98
2026-02-13 16:31:31.377,124.200,0.027685,-0.018777,1.777764,1.202,-2.120,0.695,32.93
2026-02-13 16:31:31.477,124.300,0.030370,-0.017068,1.773858,1.263,-2.074,1.016,32.78
2026-02-13 16:31:31.577,124.400,0.030614,-0.017068,1.782159,1.210,-2.296,0.680,33.08
2026-02-13 16:31:31.677,124.500,0.033056,-0.017068,1.779962,0.958,-2.326,0.695,32.78
2026-02-13 16:31:31.777,124.600,0.032079,-0.015848,1.775079,1.248,-2.242,0.779,32.59
2026-02-13 16:31:31.877,124.700,0.029638,-0.013650,1.778985,1.126,-2.296,1.001,32.83
2026-02-13 16:31:31.977,124.800,0.033056,-0.019022,1.774346,1.179,-2.410,0.810,33.08
2026-02-13 16:31:32.077,124.900,0.030370,-0.016580,1.774102,0.950,-2.280,1.237,32.78
2026-02-13 16:31:32.177,125.000,0.035497,-0.016824,1.774346,1.133,-2.372,0.604,32.83
2026-02-13 16:31:32.277,125.100,0.027929,-0.017313,1.774346,1.194,-2.143,0.917,32.83
2026-02-13 16:31:32.377,125.200,0.029638,-0.015848,1.776544,0.927,-2.029,0.817,32.83
2026-02-13 16:31:32.477,125.300,0.027929,-0.019754,1.775079,1.271,-2.380,0.993,33.08
2026-02-13 16:31:32.577,125.400,0.026464,-0.017557,1.780694,1.286,-2.349,0.741,32.74
2026-02-13 16:31:32.677,125.500,0.028905,-0.011697,1.777520,1.019,-2.112,0.909,32.98
2026-02-13 16:31:32.777,125.600,0.031103,-0.017801,1.777764,1.278,-2.372,0.802,33.08
2026-02-13 16:31:32.877,125.700,0.031103,-0.016580,1.774346,1.149,-2.151,0.726,32.83
2026-02-13 16:31:32.977,125.800,0.030614,-0.011941,1.777764,1.232,-2.464,0.825,32.83
2026-02-13 16:31:33.077,125.900,0.029882,-0.017068,1.775811,0.950,-2.227,0.718,32.83
2026-02-13 16:31:33.177,126.000,0.029149,-0.011941,1.781426,1.332,-2.166,0.825,32.83
2026-02-13 16:31:33.277,126.100,0.027929,-0.016336,1.773126,1.133,-2.418,0.749,33.08
2026-02-13 16:31:33.377,126.200,0.025243,-0.015848,1.777276,1.255,-2.105,0.871,32.98
2026-02-13 16:31:33.477,126.300,0.034032,-0.017068,1.774835,1.431,-2.364,0.817,32.74
2026-02-13 16:31:33.577,126.400,0.030370,-0.015359,1.775811,1.171,-2.112,0.733,33.08
2026-02-13 16:31:33.677,126.500,0.029882,-0.015359,1.780938,1.324,-2.189,0.520,33.08
2026-02-13 16:31:33.777,126.600,0.032323,-0.014139,1.774590,1.126,-2.174,0.817,33.08
2026-02-13 16:31:33.877,126.700,0.031591,-0.010721,1.776055,1.393,-2.120,0.901,33.13
2026-02-13 16:31:33.977,126.800,0.029882,-0.011453,1.778497,1.171,-2.280,0.733,32.78
2026-02-13 16:31:34.077,126.900,0.023290,-0.015848,1.777276,1.171,-2.448,0.497,33.27
2026-02-13 16:31:34.177,127.000,0.034032,-0.016336,1.777520,1.133,-2.403,0.779,32.93
2026-02-13 16:31:34.277,127.100,0.033788,-0.013406,1.778497,1.110,-2.135,0.649,32.93
2026-02-13 16:31:34.377,127.200,0.028661,-0.013895,1.770196,1.347,-2.349,0.856,32.83
2026-02-13 16:31:34.477,127.300,0.031591,-0.018777,1.777276,1.087,-2.380,0.901,32.83
2026-02-13 16:31:34.577,127.400,0.028173,-0.013895,1.777032,1.103,-2.410,0.749,32.98
2026-02-13 16:31:34.677,127.500,0.030614,-0.019998,1.777764,1.316,-2.403,0.810,33.13
2026-02-13 16:31:34.777,127.600,0.032079,-0.017313,1.774346,1.393,-2.341,0.741,32.98
2026-02-13 16:31:34.877,127.700,0.028173,-0.015848,1.776788,1.339,-2.128,0.726,32.98
2026-02-13 16:31:34.977,127.800,0.031103,-0.015115,1.769219,1.370,-2.456,0.955,32.64
2026-02-13 16:31:35.077,127.900,0.031591,-0.015604,1.770440,1.202,-2.448,0.863,33.13
2026-02-13 16:31:35.177,128.000,0.031591,-0.014627,1.779962,1.034,-2.227,0.756,32.78
2026-02-13 16:31:35.277,128.100,0.030370,-0.014871,1.775079,0.904,-2.341,0.764,33.08
2026-02-13 16:31:35.377,128.200,0.032812,-0.014871,1.778008,1.240,-2.441,0.711,32.83
2026-02-13 16:31:35.477,128.300,0.031835,-0.017068,1.775323,1.324,-2.090,0.649,32.93
2026-02-13 16:31:35.577,128.400,0.031103,-0.013650,1.771417,1.095,-2.326,0.665,32.64
2026-02-13 16:31:35.677,128.500,0.030126,-0.014383,1.771905,1.019,-2.196,0.627,32.64
2026-02-13 16:31:35.777,128.600,0.031835,-0.014871,1.778008,1.110,-2.418,0.970,32.98
2026-02-13 16:31:35.877,128.700,0.025976,-0.018533,1.779473,1.355,-2.311,0.741,32.98
2026-02-13 16:31:35.977,128.800,0.029149,-0.016824,1.778985,1.286,-2.219,0.787,32.78
2026-02-13 16:31:36.077,128.900,0.033544,-0.014139,1.774590,1.294,-2.227,0.733,33.08
2026-02-13 16:31:36.177,129.000,0.028905,-0.014139,1.781915,1.210,-2.326,0.657,32.93
2026-02-13 16:31:36.277,129.100,0.029882,-0.017801,1.781671,1.065,-2.097,0.398,33.08
2026-02-13 16:31:36.377,129.200,0.031103,-0.014871,1.770440,1.126,-2.387,0.810,32.83
2026-02-13 16:31:36.477,129.300,0.031591,-0.015848,1.777520,1.210,-2.044,0.779,32.78
2026-02-13 16:31:36.577,129.400,0.032323,-0.015604,1.773614,1.271,-2.487,0.695,32.83
2026-02-13 16:31:36.677,129.500,0.029394,-0.017068,1.773126,1.210,-2.403,0.779,32.83
2026-02-13 16:31:36.777,129.600,0.031103,-0.012918,1.773858,1.179,-2.151,0.482,32.78
2026-02-13 16:31:36.877,129.700,0.031835,-0.013406,1.775811,1.263,-2.448,0.627,32.64
2026-02-13 16:31:36.977,129.800,0.028905,-0.013895,1.774835,1.149,-2.341,1.085,32.83
2026-02-13 16:31:37.077,129.900,0.032079,-0.014627,1.774835,0.996,-2.372,0.856,32.83
2026-02-13 16:31:37.177,130.000,0.031103,-0.019998,1.766046,1.210,-2.212,0.634,32.83
2026-02-13 16:31:37.277,130.100,0.030858,-0.015848,1.777520,1.232,-2.364,0.420,32.83
2026-02-13 16:31:37.377,130.200,0.030858,-0.017068,1.776055,1.217,-2.242,0.749,32.83
2026-02-13 16:31:37.477,130.300,0.031591,-0.018777,1.778008,0.744,-2.372,0.787,32.78
2026-02-13 16:31:37.577,130.400,0.027196,-0.017557,1.777032,1.133,-2.189,0.901,33.08
2026-02-13 16:31:37.677,130.500,0.029638,-0.018289,1.776055,0.996,-2.532,0.581,32.64
2026-02-13 16:31:37.777,130.600,0.034765,-0.020975,1.776055,1.080,-2.372,1.237,32.74
2026-02-13 16:31:37.877,130.700,0.028173,-0.013650,1.769952,1.385,-2.334,0.611,32.44
2026-02-13 16:31:37.977,130.800,0.032567,-0.015604,1.782403,1.194,-2.280,1.146,32.93
2026-02-13 16:31:38.077,130.900,0.027929,-0.014871,1.776055,1.133,-2.196,0.619,33.08
2026-02-13 16:31:38.177,131.000,0.033300,-0.014383,1.779717,1.339,-2.158,0.680,32.93
2026-02-13 16:31:38.277,131.100,0.030370,-0.015848,1.776788,1.469,-2.364,0.878,33.08
2026-02-13 16:31:38.377,131.200,0.029882,-0.010965,1.780694,1.210,-2.471,1.100,32.93
2026-02-13 16:31:38.477,131.300,0.031347,-0.015115,1.780206,1.378,-2.319,0.711,32.93
2026-02-13 16:31:38.577,131.400,0.030858,-0.013650,1.775811,1.332,-2.479,0.840,32.83
2026-02-13 16:31:38.677,131.500,0.029882,-0.012430,1.777764,1.255,-2.502,0.779,32.93
2026-02-13 16:31:38.777,131.600,0.028173,-0.013650,1.772881,1.278,-2.036,0.596,32.93
2026-02-13 16:31:38.877,131.700,0.030126,-0.016580,1.778741,1.118,-2.181,0.718,33.27
2026-02-13 16:31:38.977,131.800,0.027929,-0.018289,1.773370,1.141,-2.364,0.962,32.78
2026-02-13 16:31:39.077,131.900,0.031835,-0.013895,1.778008,1.171,-2.425,0.611,33.27
2026-02-13 16:31:39.177,132.000,0.032079,-0.020730,1.778985,1.263,-2.250,0.924,32.74
2026-02-13 16:31:39.277,132.100,0.033300,-0.014383,1.773370,1.385,-2.349,0.947,32.78
2026-02-13 16:31:39.377,132.200,0.028905,-0.010965,1.779717,1.347,-2.624,0.718,33.08
2026-02-13 16:31:39.477,132.300,0.033300,-0.017068,1.773126,1.263,-2.387,0.741,32.78
2026-02-13 16:31:39.577,132.400,0.031835,-0.017557,1.776299,1.149,-2.311,0.901,32.64
2026-02-13 16:31:39.677,132.500,0.035253,-0.013650,1.776544,1.271,-2.311,0.779,32.78
2026-02-13 16:31:39.777,132.600,0.031103,-0.017068,1.781426,1.003,-2.280,0.749,32.54
2026-02-13 16:31:39.877,132.700,0.034032,-0.014871,1.776055,1.103,-2.219,0.642,32.74
2026-02-13 16:31:39.977,132.800,0.031835,-0.013895,1.777764,1.019,-2.296,0.733,32.98
2026-02-13 16:31:40.077,132.900,0.034276,-0.017068,1.781426,1.408,-2.227,0.917,32.78
2026-02-13 16:31:40.177,133.000,0.030614,-0.018777,1.777764,1.263,-2.120,0.680,32.93
2026-02-13 16:31:40.277,133.100,0.027929,-0.016092,1.774102,1.393,-2.387,0.764,32.74
2026-02-13 16:31:40.377,133.200,0.030126,-0.016092,1.780450,1.095,-2.296,0.718,33.08
2026-02-13 16:31:40.477,133.300,0.028173,-0.015115,1.772637,1.316,-2.021,0.917,32.83
2026-02-13 16:31:40.577,133.400,0.029882,-0.019022,1.780206,1.271,-2.174,0.810,32.98
2026-02-13 16:31:40.677,133.500,0.029882,-0.016580,1.781671,1.034,-2.441,0.764,33.08
2026-02-13 16:31:40.777,133.600,0.030614,-0.014383,1.769952,1.362,-2.250,0.711,33.27
2026-02-13 16:31:40.877,133.700,0.032812,-0.017557,1.778985,1.080,-2.227,1.039,32.59
2026-02-13 16:31:40.977,133.800,0.027440,-0.014383,1.775323,1.156,-2.425,1.039,32.93
2026-02-13 16:31:41.077,133.900,0.032567,-0.016336,1.778741,1.164,-2.395,0.649,32.98
2026-02-13 16:31:41.177,134.000,0.030126,-0.012918,1.772881,1.339,-2.319,0.634,32.59
2026-02-13 16:31:41.277,134.100,0.026952,-0.013406,1.780206,1.087,-2.166,0.932,32.93
2026-02-13 16:31:41.377,134.200,0.031347,-0.019022,1.771661,1.286,-2.174,0.878,33.13
2026-02-13 16:31:41.477,134.300,0.031103,-0.017557,1.776788,1.378,-2.517,0.741,32.83
2026-02-13 16:31:41.577,134.400,0.031835,-0.015359,1.784112,1.416,-2.357,0.672,32.98
2026-02-13 16:31:41.677,134.500,0.031835,-0.013650,1.776299,1.347,-2.219,0.581,32.64
2026-02-13 16:31:41.777,134.600,0.029638,-0.016336,1.779717,1.324,-2.311,0.634,32.93
2026-02-13 16:31:41.877,134.700,0.035741,-0.013895,1.774835,1.133,-2.479,0.695,32.78
2026-02-13 16:31:41.977,134.800,0.030858,-0.014383,1.778741,1.194,-2.204,0.688,32.78
2026-02-13 16:31:42.077,134.900,0.034765,-0.017313,1.778008,1.042,-2.280,0.901,32.98
2026-02-13 16:31:42.177,135.000,0.028905,-0.013162,1.766046,1.141,-2.120,0.833,32.93
2026-02-13 16:31:42.277,135.100,0.031835,-0.014139,1.783135,1.301,-2.319,0.909,32.83
2026-02-13 16:31:42.377,135.200,0.030614,-0.015115,1.778741,1.057,-2.517,0.718,33.08
2026-02-13 16:31:42.477,135.300,0.030858,-0.018045,1.772393,1.118,-2.517,0.741,32.74
2026-02-13 16:31:42.577,135.400,0.028905,-0.015359,1.779962,1.301,-2.288,0.886,32.59
2026-02-13 16:31:42.677,135.500,0.029882,-0.015848,1.777764,1.278,-2.372,0.932,32.74
2026-02-13 16:31:42.777,135.600,0.029638,-0.018289,1.776299,1.156,-1.998,0.520,33.18
2026-02-13 16:31:42.877,135.700,0.031591,-0.016824,1.776544,1.248,-2.158,0.695,32.64
2026-02-13 16:31:42.977,135.800,0.031591,-0.013650,1.778253,1.423,-2.364,0.787,32.64
2026-02-13 16:31:43.077,135.900,0.031835,-0.015848,1.776055,0.973,-2.044,0.894,32.78
2026-02-13 16:31:43.177,136.000,0.027685,-0.019754,1.777764,1.362,-2.242,0.749,32.78
2026-02-13 16:31:43.277,136.100,0.033300,-0.012918,1.775811,1.446,-2.364,0.703,32.83
2026-02-13 16:31:43.377,136.200,0.027929,-0.015359,1.780938,1.271,-2.273,0.695,32.64
2026-02-13 16:31:43.477,136.300,0.031103,-0.015848,1.774835,1.057,-2.456,0.917,32.83
2026-02-13 16:31:43.577,136.400,0.029882,-0.015115,1.774590,1.133,-2.204,0.726,32.78
2026-02-13 16:31:43.677,136.500,0.034521,-0.020242,1.774590,0.889,-2.181,0.795,32.74
2026-02-13 16:31:43.777,136.600,0.034276,-0.017313,1.773614,0.988,-2.273,0.894,32.59
2026-02-13 16:31:43.877,136.700,0.030858,-0.019510,1.774835,1.278,-2.349,1.001,33.08
2026-02-13 16:31:43.977,136.800,0.031103,-0.012674,1.775567,1.301,-2.158,1.008,32.78
2026-02-13 16:31:44.077,136.900,0.028173,-0.015848,1.779473,1.149,-2.219,1.069,32.83
2026-02-13 16:31:44.177,137.000,0.030126,-0.013895,1.779717,1.255,-2.250,0.795,32.83
2026-02-13 16:31:44.277,137.100,0.029882,-0.014383,1.777520,1.133,-2.464,0.924,32.98
2026-02-13 16:31:44.377,137.200,0.033788,-0.016824,1.780938,1.286,-2.410,0.726,32.98
2026-02-13 16:31:44.477,137.300,0.032567,-0.015359,1.779473,1.393,-2.364,1.008,32.83
2026-02-13 16:31:44.577,137.400,0.029149,-0.016092,1.775323,1.171,-2.258,0.695,32.64
2026-02-13 16:31:44.677,137.500,0.032567,-0.017068,1.771661,1.347,-2.242,0.489,33.08
2026-02-13 16:31:44.777,137.600,0.024511,-0.015115,1.776055,1.286,-2.097,0.482,32.83
2026-02-13 16:31:44.877,137.700,0.029638,-0.016580,1.773370,1.225,-2.372,0.657,32.83
2026-02-13 16:31:44.977,137.800,0.028905,-0.014627,1.778008,1.309,-2.456,0.840,32.83
2026-02-13 16:31:45.077,137.900,0.031591,-0.016092,1.769952,1.286,-2.410,0.718,32.78
2026-02-13 16:31:45.177,138.000,0.033544,-0.018777,1.783624,1.156,-2.395,0.627,33.18
2026-02-13 16:31:45.277,138.100,0.029149,-0.014383,1.775323,1.149,-2.395,0.611,32.64
2026-02-13 16:31:45.377,138.200,0.029149,-0.017557,1.777276,1.103,-2.082,0.558,32.74
2026-02-13 16:31:45.477,138.300,0.030858,-0.017557,1.775079,1.408,-2.418,0.863,32.98
2026-02-13 16:31:45.577,138.400,0.031347,-0.015359,1.774346,1.309,-2.166,0.642,32.78
2026-02-13 16:31:45.677,138.500,0.030126,-0.015115,1.772637,1.202,-2.456,0.871,32.78
2026-02-13 16:31:45.777,138.600,0.030126,-0.017068,1.776055,1.324,-2.219,0.894,32.98
2026-02-13 16:31:45.877,138.700,0.030614,-0.015848,1.774102,1.164,-2.196,0.871,32.59
2026-02-13 16:31:45.977,138.800,0.029882,-0.015115,1.777276,1.278,-2.441,0.764,32.83
2026-02-13 16:31:46.077,138.900,0.033544,-0.015115,1.772881,1.087,-2.341,0.619,32.78
2026-02-13 16:31:46.177,139.000,0.027685,-0.015848,1.774346,1.225,-2.387,1.008,32.98
2026-02-13 16:31:46.277,139.100,0.031103,-0.015115,1.780206,1.210,-2.425,1.039,32.78
2026-02-13 16:31:46.377,139.200,0.030126,-0.018533,1.775567,1.110,-2.525,0.695,32.78
2026-02-13 16:31:46.477,139.300,0.027196,-0.016092,1.776544,1.179,-2.403,1.100,33.08
2026-02-13 16:31:46.577,139.400,0.031835,-0.012674,1.777032,1.095,-2.311,0.711,32.93
2026-02-13 16:31:46.677,139.500,0.032812,-0.015115,1.773614,1.332,-2.288,0.695,32.78
2026-02-13 16:31:46.777,139.600,0.032079,-0.017068,1.779473,1.232,-2.487,0.711,32.78
2026-02-13 16:31:46.877,139.700,0.027929,-0.015359,1.778253,1.507,-2.189,0.795,32.83
2026-02-13 16:31:46.977,139.800,0.029638,-0.011941,1.773614,1.294,-2.280,0.909,32.59
2026-02-13 16:31:47.077,139.900,0.031835,-0.016092,1.779473,1.294,-2.036,1.031,32.93
2026-02-13 16:31:47.177,140.000,0.031591,-0.014627,1.780938,1.240,-2.036,0.711,32.64
2026-02-13 16:31:47.277,140.100,0.028905,-0.015848,1.781426,1.179,-2.112,0.985,32.93
2026-02-13 16:31:47.377,140.200,0.028417,-0.016580,1.777276,1.057,-2.410,0.962,32.74
2026-02-13 16:31:47.477,140.300,0.032079,-0.016580,1.777032,1.309,-2.296,0.901,32.83
2026-02-13 16:31:47.577,140.400,0.027685,-0.013650,1.777276,1.087,-2.196,0.962,32.83
2026-02-13 16:31:47.677,140.500,0.028417,-0.012674,1.776299,1.133,-2.357,0.825,32.74
2026-02-13 16:31:47.777,140.600,0.029149,-0.015848,1.771905,1.103,-2.174,0.940,32.74
2026-02-13 16:31:47.877,140.700,0.033056,-0.016580,1.776788,1.065,-2.204,0.764,32.93
2026-02-13 16:31:47.977,140.800,0.031347,-0.017313,1.773126,1.133,-2.341,0.527,32.83
2026-02-13 16:31:48.077,140.900,0.029149,-0.016824,1.778497,1.194,-2.235,0.779,32.83
2026-02-13 16:31:48.177,141.000,0.032323,-0.018289,1.778497,1.248,-2.219,0.917,32.59
2026-02-13 16:31:48.277,141.100,0.028905,-0.014871,1.780206,1.210,-2.151,0.680,32.83
2026-02-13 16:31:48.377,141.200,0.028173,-0.015604,1.776299,1.110,-2.372,0.558,32.93
2026-02-13 16:31:48.477,141.300,0.030858,-0.018045,1.776055,1.294,-2.212,0.909,32.93
2026-02-13 16:31:48.577,141.400,0.030126,-0.015115,1.776055,1.225,-2.288,0.833,32.98
2026-02-13 16:31:48.677,141.500,0.027440,-0.015604,1.772149,1.072,-2.380,0.924,32.78
2026-02-13 16:31:48.777,141.600,0.028417,-0.013895,1.776788,1.286,-2.464,0.817,33.18
2026-02-13 16:31:48.877,141.700,0.024022,-0.015848,1.776544,1.149,-2.273,0.665,32.83
2026-02-13 16:31:48.977,141.800,0.030370,-0.014871,1.774590,1.026,-2.410,0.787,33.08
2026-02-13 16:31:49.077,141.900,0.033056,-0.015115,1.777032,1.156,-2.372,0.894,32.83
2026-02-13 16:31:49.177,142.000,0.027196,-0.015604,1.774346,1.141,-2.349,0.894,32.98
2026-02-13 16:31:49.277,142.100,0.032567,-0.015604,1.782403,1.080,-2.387,0.825,32.83
2026-02-13 16:31:49.377,142.200,0.030858,-0.011453,1.774346,1.263,-2.204,0.504,32.83
